date/time,gyro_x,gyro_y,gyro_z,accel_x,accel_y,accel_z,x,y,timestamp,x_cam,y_cam,z_cam
2024-06-05 15:22:41.443142,48.02290076335878,-1.4732824427480915,-1.5114503816793894,0.21068974609375,2.729389892578125,8.451531860351562,216.79196046084587,134.2864101174568,2024-06-05 15:22:41.443142,-0.3090629182032987,0.951041346345307,0.0006856627209984
2024-06-05 15:22:41.450472,47.9236641221374,-1.5038167938931295,-1.4351145038167938,0.1939303344726562,2.801215942382812,8.453926062011718,216.79203508879786,134.2865370396112,2024-06-05 15:22:41.450472,-0.3090629182032987,0.951041346345307,0.0006856627209984
2024-06-05 15:22:41.457621,48.02290076335878,-1.2290076335877862,-1.3969465648854962,0.2418143676757812,2.655169641113281,8.537723120117187,216.79210971674985,134.2866639617656,2024-06-05 15:22:41.457621,-0.3090629182032987,0.951041346345307,0.0006856627209984
2024-06-05 15:22:41.464728,48.09160305343512,-1.5419847328244274,-1.5572519083969465,0.2154781494140625,2.829946362304687,8.29351455078125,216.79218434470184,134.28679088392002,2024-06-05 15:22:41.464728,-0.3090629182032987,0.951041346345307,0.0006856627209984
2024-06-05 15:22:41.472047,48.22900763358778,-1.5801526717557253,-1.5419847328244274,0.1963245361328124,2.844311572265625,8.418013037109375,216.79225897265383,134.2869178060744,2024-06-05 15:22:41.472047,-0.3090629182032987,0.951041346345307,0.0006856627209984
2024-06-05 15:22:41.479194,47.847328244274806,-1.2290076335877862,-1.4961832061068705,0.0646434448242187,2.794033337402344,8.386888415527343,216.7923336006058,134.2870447282288,2024-06-05 15:22:41.479194,-0.3090629182032987,0.951041346345307,0.0006856627209984
2024-06-05 15:22:41.486535,48.083969465648856,-1.3282442748091603,-1.5648854961832062,0.201112939453125,2.885013000488281,8.339004382324218,216.79240822855778,134.28717165038321,2024-06-05 15:22:41.486535,-0.3090629182032987,0.951041346345307,0.0006856627209984
2024-06-05 15:22:41.493577,47.93893129770992,-1.2442748091603053,-1.5801526717557253,0.2849099975585937,2.8706477905273435,8.449137658691406,216.79248285650976,134.28729857253762,2024-06-05 15:22:41.493577,-0.3090629182032987,0.951041346345307,0.0006856627209984
2024-06-05 15:22:41.500552,47.88549618320611,-1.366412213740458,-1.5954198473282444,0.1987187377929687,2.827552160644532,8.279149340820313,216.79255748446175,134.28742549469203,2024-06-05 15:22:41.500552,-0.3090629182032987,0.951041346345307,0.0006856627209984
2024-06-05 15:22:41.507781,48.12213740458015,-1.4427480916030535,-1.5877862595419847,0.2418143676757812,2.839523168945312,8.37012900390625,216.79263211241374,134.28755241684644,2024-06-05 15:22:41.507781,-0.3090629182032987,0.951041346345307,0.0006856627209984
2024-06-05 15:22:41.514892,47.93129770992366,-1.3053435114503815,-1.5801526717557253,0.2346317626953125,2.817975354003906,8.432378247070313,216.79270674036573,134.28767933900085,2024-06-05 15:22:41.514892,-0.3090629182032987,0.951041346345307,0.0006856627209984
2024-06-05 15:22:41.521843,47.89312977099237,-1.2900763358778626,-1.5419847328244274,0.2489969726562499,2.801215942382812,8.418013037109375,216.79278136831772,134.28780626115525,2024-06-05 15:22:41.521843,-0.3090629182032987,0.951041346345307,0.0006856627209984
2024-06-05 15:22:41.528806,48.03053435114504,-1.4885496183206106,-1.549618320610687,0.2274491577148437,2.91134921875,8.465897070312499,216.7928559962697,134.28793318330963,2024-06-05 15:22:41.528806,-0.3090629182032987,0.951041346345307,0.0006856627209984
2024-06-05 15:22:41.535762,47.86259541984733,-1.5954198473282444,-1.4885496183206106,0.2346317626953125,2.8754361938476563,8.365340600585936,216.7929306242217,134.28806010546404,2024-06-05 15:22:41.535762,-0.3090629182032987,0.951041346345307,0.0006856627209984
2024-06-05 15:22:41.542773,47.954198473282446,-1.4045801526717556,-1.6259541984732824,0.1651999145507812,2.8945898071289062,8.40843623046875,216.79300525217369,134.28818702761845,2024-06-05 15:22:41.542773,-0.3090629182032987,0.951041346345307,0.0006856627209984
2024-06-05 15:22:41.549708,47.93893129770992,-1.3893129770992367,-1.6106870229007633,0.2178723510742187,2.9089550170898435,8.32463917236328,216.79307988012565,134.28831394977286,2024-06-05 15:22:41.549708,-0.3090629182032987,0.951041346345307,0.0006856627209984
2024-06-05 15:22:41.556649,47.82442748091603,-1.2595419847328244,-1.6946564885496185,0.21068974609375,2.8802245971679685,8.415618835449218,216.79315450807763,134.28844087192726,2024-06-05 15:22:41.556649,-0.3090629182032987,0.951041346345307,0.0006856627209984
2024-06-05 15:22:41.563605,48.0,-1.4732824427480915,-1.6106870229007633,0.2633621826171874,2.8706477905273435,8.470685473632813,216.79322913602962,134.28856779408167,2024-06-05 15:22:41.563605,-0.3090629182032987,0.951041346345307,0.0006856627209984
2024-06-05 15:22:41.570800,47.96946564885496,-1.381679389312977,-1.4580152671755726,0.2489969726562499,2.877830395507812,8.40125362548828,216.7933037639816,134.28869471623608,2024-06-05 15:22:41.570800,-0.3090629182032987,0.951041346345307,0.0006856627209984
2024-06-05 15:22:41.577835,47.61068702290076,-1.3129770992366412,-1.6488549618320612,0.2250549560546874,2.9185318237304685,8.391676818847655,216.7933783919336,134.28882163839046,2024-06-05 15:22:41.577835,-0.3090629182032987,0.951041346345307,0.0006856627209984
2024-06-05 15:22:41.584779,47.90076335877863,-1.3358778625954195,-1.549618320610687,0.2082955444335937,2.925714428710937,8.425195642089843,216.7934530198856,134.28894856054487,2024-06-05 15:22:41.584779,-0.3090629182032987,0.951041346345307,0.0006856627209984
2024-06-05 15:22:41.591755,47.56488549618321,-1.450381679389313,-1.4885496183206106,0.21068974609375,2.7581203125,8.420407238769531,216.79352764783758,134.28907548269927,2024-06-05 15:22:41.591755,-0.3090629182032987,0.951041346345307,0.0006856627209984
2024-06-05 15:22:41.598738,47.6030534351145,-1.282442748091603,-1.4961832061068705,0.2609679809570312,2.7964275390625,8.573636145019531,216.79360227578957,134.28920240485368,2024-06-05 15:22:41.598738,-0.3090629182032987,0.951041346345307,0.0006856627209984
2024-06-05 15:22:41.605709,47.79389312977099,-1.2290076335877862,-1.549618320610687,0.2896984008789062,2.8730419921875,8.346186987304687,216.79367690374156,134.2893293270081,2024-06-05 15:22:41.605709,-0.3090629182032987,0.951041346345307,0.0006856627209984
2024-06-05 15:22:41.612682,47.57251908396947,-1.282442748091603,-1.5190839694656488,0.277727392578125,2.961627453613281,8.394071020507813,216.79375153169352,134.2894562491625,2024-06-05 15:22:41.612682,-0.3090629182032987,0.951041346345307,0.0006856627209984
2024-06-05 15:22:41.619605,47.58778625954199,-1.3129770992366412,-1.549618320610687,0.2657563842773437,2.789244934082031,8.384494213867187,216.7938261596455,134.2895831713169,2024-06-05 15:22:41.619605,-0.3090629182032987,0.951041346345307,0.0006856627209984
2024-06-05 15:22:41.626579,47.61832061068702,-1.1145038167938932,-1.6259541984732824,0.2920926025390625,2.959233251953125,8.525752111816406,216.7939007875975,134.2897100934713,2024-06-05 15:22:41.626579,-0.3090629182032987,0.951041346345307,0.0006856627209984
2024-06-05 15:22:41.633570,47.6030534351145,-1.3893129770992367,-1.3893129770992367,0.2370259643554687,2.932897033691406,8.427589843749999,216.79397541554948,134.2898370156257,2024-06-05 15:22:41.633570,-0.3090629182032987,0.951041346345307,0.0006856627209984
2024-06-05 15:22:41.640486,47.61832061068702,-1.3053435114503815,-1.5801526717557253,0.1915361328124999,2.966415856933593,8.434772448730468,216.79405004350147,134.2899639377801,2024-06-05 15:22:41.640486,-0.3090629182032987,0.951041346345307,0.0006856627209984
2024-06-05 15:22:41.647603,47.52671755725191,-1.3511450381679388,-1.6870229007633588,0.2609679809570312,2.959233251953125,8.360552197265624,216.79412467145346,134.2900908599345,2024-06-05 15:22:41.647603,-0.3090629182032987,0.951041346345307,0.0006856627209984
2024-06-05 15:22:41.654754,47.63358778625954,-1.3587786259541983,-1.5954198473282444,0.239420166015625,2.9089550170898435,8.461108666992187,216.79419929940545,134.29021778208892,2024-06-05 15:22:41.654754,-0.3090629182032987,0.951041346345307,0.0006856627209984
2024-06-05 15:22:41.661843,47.6412213740458,-1.1221374045801529,-1.4961832061068705,0.2130839477539062,2.9568390502929685,8.365340600585936,216.79427392735744,134.29034470424332,2024-06-05 15:22:41.661843,-0.3090629182032987,0.951041346345307,0.0006856627209984
2024-06-05 15:22:41.668710,47.40458015267176,-1.1221374045801529,-1.6641221374045805,0.2250549560546874,2.935291235351562,8.425195642089843,216.79434855530943,134.29047162639773,2024-06-05 15:22:41.668710,-0.3090629182032987,0.951041346345307,0.0006856627209984
2024-06-05 15:22:41.675628,47.25190839694657,-1.3893129770992367,-1.534351145038168,0.2753331909179687,2.9831752685546875,8.396465222167969,216.79442318326142,134.29059854855214,2024-06-05 15:22:41.675628,-0.3090629182032987,0.951041346345307,0.0006856627209984
2024-06-05 15:22:41.682562,47.35114503816794,-1.282442748091603,-1.618320610687023,0.258573779296875,2.827552160644532,8.350975390624999,216.79449781121338,134.29072547070652,2024-06-05 15:22:41.682562,-0.3090629182032987,0.951041346345307,0.0006856627209984
2024-06-05 15:22:41.689479,47.34351145038168,-1.1603053435114503,-1.6564885496183206,0.2059013427734375,2.9041666137695312,8.367734802246094,216.79457243916536,134.29085239286093,2024-06-05 15:22:41.689479,-0.3090629182032987,0.951041346345307,0.0006856627209984
2024-06-05 15:22:41.696389,47.51145038167939,-1.236641221374046,-1.6793893129770991,0.3016694091796875,2.868253588867187,8.350975390624999,216.79464706711735,134.29097931501533,2024-06-05 15:22:41.696389,-0.3090629182032987,0.951041346345307,0.0006856627209984
2024-06-05 15:22:41.703322,47.25954198473283,-1.183206106870229,-1.5648854961832062,0.2442085693359375,2.9185318237304685,8.396465222167969,216.79472169506934,134.29110623716974,2024-06-05 15:22:41.703322,-0.3090629182032987,0.951041346345307,0.0006856627209984
2024-06-05 15:22:41.710246,47.3587786259542,-1.0534351145038168,-1.732824427480916,0.2489969726562499,2.832340563964844,8.37012900390625,216.79479632302133,134.29123315932415,2024-06-05 15:22:41.710246,-0.3090629182032987,0.951041346345307,0.0006856627209984
2024-06-05 15:22:41.717185,47.16793893129771,-1.236641221374046,-1.5801526717557253,0.1963245361328124,2.882618798828125,8.336610180664062,216.79487095097332,134.29136008147856,2024-06-05 15:22:41.717185,-0.3090629182032987,0.951041346345307,0.0006856627209984
2024-06-05 15:22:41.724119,47.2442748091603,-1.3893129770992367,-1.8549618320610688,0.1556231079101562,2.865859387207032,8.391676818847655,216.7949455789253,134.29148700363297,2024-06-05 15:22:41.724119,-0.3090629182032987,0.951041346345307,0.0006856627209984
2024-06-05 15:22:41.731065,47.12213740458015,-1.3358778625954195,-1.4961832061068705,0.2250549560546874,2.849099975585937,8.374917407226562,216.7950202068773,134.29161392578737,2024-06-05 15:22:41.731065,-0.3090629182032987,0.951041346345307,0.0006856627209984
2024-06-05 15:22:41.738004,47.35114503816794,-1.267175572519084,-1.618320610687023,0.1987187377929687,2.7964275390625,8.391676818847655,216.79509483482929,134.29174084794175,2024-06-05 15:22:41.738004,-0.3090629182032987,0.951041346345307,0.0006856627209984
2024-06-05 15:22:41.744995,46.99236641221374,-1.16793893129771,-1.6030534351145038,0.1987187377929687,2.877830395507812,8.427589843749999,216.79516946278125,134.29186777009616,2024-06-05 15:22:41.744995,-0.3090629182032987,0.951041346345307,0.0006856627209984
2024-06-05 15:22:41.751934,47.50381679389313,-1.3740458015267176,-1.5114503816793894,0.2705447875976562,2.85388837890625,8.398859423828124,216.79524409073323,134.29199469225057,2024-06-05 15:22:41.751934,-0.3090629182032987,0.951041346345307,0.0006856627209984
2024-06-05 15:22:41.758932,47.1526717557252,-1.2748091603053435,-1.6106870229007633,0.2753331909179687,2.801215942382812,8.279149340820313,216.79531871868522,134.29212161440498,2024-06-05 15:22:41.758932,-0.3090629182032987,0.951041346345307,0.0006856627209984
2024-06-05 15:22:41.765920,47.396946564885496,-1.366412213740458,-1.5725190839694656,0.2274491577148437,2.789244934082031,8.468291271972657,216.7953933466372,134.29224853655938,2024-06-05 15:22:41.765920,-0.3090629182032987,0.951041346345307,0.0006856627209984
2024-06-05 15:22:41.772916,47.37404580152672,-1.3969465648854962,-1.618320610687023,0.2035071411132812,2.779668127441406,8.374917407226562,216.7954679745892,134.2923754587138,2024-06-05 15:22:41.772916,-0.3090629182032987,0.951041346345307,0.0006856627209984
2024-06-05 15:22:41.779900,47.36641221374046,-1.366412213740458,-1.5725190839694656,0.181959326171875,2.8371289672851563,8.391676818847655,216.7955426025412,134.2925023808682,2024-06-05 15:22:41.779900,-0.3090629182032987,0.951041346345307,0.0006856627209984
2024-06-05 15:22:41.786860,47.40458015267176,-1.3587786259541983,-1.6412213740458017,0.2202665527343749,2.753331909179688,8.379705810546875,216.79561723049318,134.29262930302258,2024-06-05 15:22:41.786860,-0.3090629182032987,0.951041346345307,0.0006856627209984
2024-06-05 15:22:41.793815,47.54198473282442,-1.2748091603053435,-1.5648854961832062,0.2466027709960937,2.839523168945312,8.360552197265624,216.79569185844517,134.292756225177,2024-06-05 15:22:41.793815,-0.3090629182032987,0.951041346345307,0.0006856627209984
2024-06-05 15:22:41.800739,47.27480916030535,-1.3053435114503815,-1.5801526717557253,0.2154781494140625,2.789244934082031,8.350975390624999,216.79576648639716,134.2928831473314,2024-06-05 15:22:41.800739,-0.3090629182032987,0.951041346345307,0.0006856627209984
2024-06-05 15:22:41.807745,47.44274809160305,-1.2442748091603053,-1.549618320610687,0.1699883178710937,2.8131869506835936,8.437166650390624,216.79584111434914,134.2930100694858,2024-06-05 15:22:41.807745,-0.3090629182032987,0.951041346345307,0.0006856627209984
2024-06-05 15:22:41.814676,47.38167938931298,-1.2061068702290076,-1.5877862595419847,0.2154781494140625,2.7461493041992187,8.341398583984375,216.7959157423011,134.2931369916402,2024-06-05 15:22:41.814676,-0.3090629182032987,0.951041346345307,0.0006856627209984
2024-06-05 15:22:41.821632,47.43511450381679,-1.5725190839694656,-1.6946564885496185,0.1628057128906249,2.750937707519531,8.334215979003906,216.7959903702531,134.29326391379462,2024-06-05 15:22:41.821632,-0.3090629182032987,0.951041346345307,0.0006856627209984
2024-06-05 15:22:41.828616,47.48091603053435,-1.3511450381679388,-1.5114503816793894,0.1843535278320312,2.779668127441406,8.398859423828124,216.79606499820508,134.29339083594903,2024-06-05 15:22:41.828616,-0.3090629182032987,0.951041346345307,0.0006856627209984
2024-06-05 15:22:41.835529,47.47328244274809,-1.1297709923664123,-1.5190839694656488,0.2250549560546874,2.7844565307617186,8.537723120117187,216.79613962615707,134.29351775810343,2024-06-05 15:22:41.835529,-0.3090629182032987,0.951041346345307,0.0006856627209984
2024-06-05 15:22:41.842419,47.33587786259542,-1.2748091603053435,-1.5190839694656488,0.1867477294921875,2.7844565307617186,8.310273962402343,216.79621425410906,134.2936446802578,2024-06-05 15:22:41.842419,-0.3090629182032987,0.951041346345307,0.0006856627209984
2024-06-05 15:22:41.849348,47.48854961832061,-1.4351145038167938,-1.4961832061068705,0.1699883178710937,2.7581203125,8.441955053710936,216.79628888206105,134.29377160241222,2024-06-05 15:22:41.849348,-0.3090629182032987,0.951041346345307,0.0006856627209984
2024-06-05 15:22:41.856294,47.56488549618321,-1.5572519083969465,-1.5954198473282444,0.21068974609375,2.7916391357421872,8.420407238769531,216.79636351001304,134.29389852456663,2024-06-05 15:22:41.856294,-0.3090629182032987,0.951041346345307,0.0006856627209984
2024-06-05 15:22:41.863241,47.63358778625954,-1.4198473282442747,-1.4351145038167938,0.1843535278320312,2.8227637573242186,8.441955053710936,216.79643813796503,134.29402544672104,2024-06-05 15:22:41.863241,-0.3090629182032987,0.951041346345307,0.0006856627209984
2024-06-05 15:22:41.870150,47.65648854961832,-1.2290076335877862,-1.3893129770992367,0.1963245361328124,2.7964275390625,8.463502868652343,216.79651276591702,134.29415236887544,2024-06-05 15:22:41.870150,-0.3090629182032987,0.951041346345307,0.0006856627209984
2024-06-05 15:22:41.877095,47.51145038167939,-1.4122137404580153,-1.4580152671755726,0.2035071411132812,2.7269956909179687,8.47786807861328,216.79658739386898,134.29427929102985,2024-06-05 15:22:41.877095,-0.3090629182032987,0.951041346345307,0.0006856627209984
2024-06-05 15:22:41.884333,47.41984732824427,-1.5114503816793894,-1.6488549618320612,0.2059013427734375,2.7629087158203123,8.525752111816406,216.79666202182096,134.29440621318426,2024-06-05 15:22:41.884333,-0.3090629182032987,0.951041346345307,0.0006856627209984
2024-06-05 15:22:41.891360,47.54961832061068,-1.4045801526717556,-1.6717557251908397,0.1843535278320312,2.729389892578125,8.418013037109375,216.79673664977295,134.29453313533864,2024-06-05 15:22:41.891360,-0.3090629182032987,0.951041346345307,0.0006856627209984
2024-06-05 15:22:41.898322,47.74809160305343,-1.3969465648854962,-1.5572519083969465,0.2178723510742187,2.612074011230469,8.425195642089843,216.79681127772494,134.29466005749305,2024-06-05 15:22:41.898322,-0.3090629182032987,0.951041346345307,0.0006856627209984
2024-06-05 15:22:41.905312,47.81679389312977,-1.2595419847328244,-1.633587786259542,0.2082955444335937,2.7844565307617186,8.511386901855468,216.79688590567693,134.29478697964745,2024-06-05 15:22:41.905312,-0.3090629182032987,0.951041346345307,0.0006856627209984
2024-06-05 15:22:41.912316,47.70229007633588,-1.2595419847328244,-1.6564885496183206,0.2059013427734375,2.8945898071289062,8.444349255371094,216.79696053362892,134.29491390180186,2024-06-05 15:22:41.912316,-0.3090629182032987,0.951041346345307,0.0006856627209984
2024-06-05 15:22:41.919381,47.770992366412216,-1.366412213740458,-1.4961832061068705,0.1915361328124999,2.7198130859375,8.374917407226562,216.7970351615809,134.29504082395627,2024-06-05 15:22:41.919381,-0.3090629182032987,0.951041346345307,0.0006856627209984
2024-06-05 15:22:41.926314,47.77862595419848,-1.2290076335877862,-1.748091603053435,0.1987187377929687,2.779668127441406,8.276755139160155,216.7971097895329,134.29516774611068,2024-06-05 15:22:41.926314,-0.3090629182032987,0.951041346345307,0.0006856627209984
2024-06-05 15:22:41.933449,47.847328244274806,-1.3511450381679388,-1.763358778625954,0.1987187377929687,2.6288334228515624,8.520963708496094,216.79718441748489,134.2952946682651,2024-06-05 15:22:41.933449,-0.3090629182032987,0.951041346345307,0.0006856627209984
2024-06-05 15:22:41.940590,47.96183206106871,-1.3129770992366412,-1.6488549618320612,0.1891419311523437,2.817975354003906,8.432378247070313,216.79725904543687,134.2954215904195,2024-06-05 15:22:41.940590,-0.3090629182032987,0.951041346345307,0.0006856627209984
2024-06-05 15:22:41.947548,47.83206106870229,-1.236641221374046,-1.5648854961832062,0.1987187377929687,2.741360900878906,8.348581188964843,216.79733367338883,134.29554851257387,2024-06-05 15:22:41.947548,-0.3090629182032987,0.951041346345307,0.0006856627209984
2024-06-05 15:22:41.954494,47.80152671755725,-1.465648854961832,-1.5954198473282444,0.2082955444335937,2.767697119140625,8.449137658691406,216.79740830134082,134.29567543472828,2024-06-05 15:22:41.954494,-0.3090629182032987,0.951041346345307,0.0006856627209984
2024-06-05 15:22:41.961444,47.954198473282446,-1.381679389312977,-1.6870229007633588,0.2274491577148437,2.779668127441406,8.461108666992187,216.7974829292928,134.2958023568827,2024-06-05 15:22:41.961444,-0.3090629182032987,0.951041346345307,0.0006856627209984
2024-06-05 15:22:41.968474,47.96946564885496,-1.465648854961832,-1.702290076335878,0.2418143676757812,2.806004345703125,8.384494213867187,216.7975575572448,134.2959292790371,2024-06-05 15:22:41.968474,-0.3090629182032987,0.951041346345307,0.0006856627209984
2024-06-05 15:22:41.975610,48.02290076335878,-1.366412213740458,-1.6870229007633588,0.1628057128906249,2.7964275390625,8.367734802246094,216.7976321851968,134.2960562011915,2024-06-05 15:22:41.975610,-0.3090629182032987,0.951041346345307,0.0006856627209984
2024-06-05 15:22:41.982695,47.96946564885496,-1.5648854961832062,-1.702290076335878,0.2202665527343749,2.7724855224609373,8.382100012207031,216.79770681314878,134.2961831233459,2024-06-05 15:22:41.982695,-0.3090629182032987,0.951041346345307,0.0006856627209984
2024-06-05 15:22:41.989631,48.16030534351145,-1.4961832061068705,-1.786259541984733,0.1843535278320312,2.81558115234375,8.377311608886718,216.79778144110077,134.29631004550032,2024-06-05 15:22:41.989631,-0.3090629182032987,0.951041346345307,0.0006856627209984
2024-06-05 15:22:41.996539,47.99236641221374,-1.236641221374046,-1.6030534351145038,0.2250549560546874,2.858676782226562,8.327033374023436,216.79785606905276,134.2964369676547,2024-06-05 15:22:41.996539,-0.3090629182032987,0.951041346345307,0.0006856627209984
2024-06-05 15:22:42.003501,48.40458015267176,-1.4961832061068705,-1.4809160305343512,0.258573779296875,2.832340563964844,8.422801440429687,216.79793069700474,134.2965638898091,2024-06-05 15:22:42.003501,-0.3090629182032987,0.951041346345307,0.0006856627209984
2024-06-05 15:22:42.010411,48.16030534351145,-1.4885496183206106,-1.366412213740458,0.2250549560546874,2.896984008789062,8.360552197265624,216.7980053249567,134.29669081196351,2024-06-05 15:22:42.010411,-0.3090629182032987,0.951041346345307,0.0006856627209984
2024-06-05 15:22:42.017346,47.9236641221374,-1.3053435114503815,-1.4732824427480915,0.229843359375,2.9544448486328125,8.410830432128906,216.7980799529087,134.29681773411792,2024-06-05 15:22:42.017346,-0.3090629182032987,0.951041346345307,0.0006856627209984
2024-06-05 15:22:42.024248,47.96946564885496,-1.3893129770992367,-1.3740458015267176,0.201112939453125,2.8706477905273435,8.341398583984375,216.79815458086068,134.29694465627233,2024-06-05 15:22:42.024248,-0.3090629182032987,0.951041346345307,0.0006856627209984
2024-06-05 15:22:42.031141,47.908396946564885,-1.450381679389313,-1.3740458015267176,0.2609679809570312,2.966415856933593,8.37012900390625,216.79822920881267,134.29707157842674,2024-06-05 15:22:42.031141,-0.3090629182032987,0.951041346345307,0.0006856627209984
2024-06-05 15:22:42.038113,47.88549618320611,-1.381679389312977,-1.3969465648854962,0.2370259643554687,2.978386865234375,8.281543542480469,216.79830383676466,134.29719850058115,2024-06-05 15:22:42.038113,-0.3090629182032987,0.951041346345307,0.0006856627209984
2024-06-05 15:22:42.045219,47.82442748091603,-1.366412213740458,-1.366412213740458,0.2561795776367187,3.201047619628906,8.501810095214843,216.79837846471665,134.29732542273555,2024-06-05 15:22:42.045219,-0.3090629182032987,0.951041346345307,0.0006856627209984
2024-06-05 15:22:42.052266,47.89312977099237,-1.2442748091603053,-1.267175572519084,0.239420166015625,3.0358477050781247,8.32463917236328,216.79845309266864,134.29745234488993,2024-06-05 15:22:42.052266,-0.3090629182032987,0.951041346345307,0.0006856627209984
2024-06-05 15:22:42.059227,47.81679389312977,-1.4198473282442747,-1.0916030534351144,0.3088520141601562,3.0358477050781247,8.360552197265624,216.79852772062063,134.29757926704434,2024-06-05 15:22:42.059227,-0.3090629182032987,0.951041346345307,0.0006856627209984
2024-06-05 15:22:42.066171,47.58778625954199,-1.16793893129771,-1.3053435114503815,0.36391865234375,2.9568390502929685,8.382100012207031,216.79860234857262,134.29770618919875,2024-06-05 15:22:42.066171,-0.3090629182032987,0.951041346345307,0.0006856627209984
2024-06-05 15:22:42.073120,47.37404580152672,-1.2748091603053435,-1.2748091603053435,0.1795651245117187,2.9951462768554684,8.29351455078125,216.7986769765246,134.29783311135316,2024-06-05 15:22:42.073120,-0.3090629182032987,0.951041346345307,0.0006856627209984
2024-06-05 15:22:42.080070,47.37404580152672,-1.534351145038168,-1.2900763358778626,0.0550666381835937,2.935291235351562,8.315062365722655,216.79875160447656,134.29796003350756,2024-06-05 15:22:42.080070,-0.3090629182032987,0.951041346345307,0.0006856627209984
2024-06-05 15:22:42.086998,47.64885496183206,-1.297709923664122,-1.5725190839694656,0.2250549560546874,2.8945898071289062,8.398859423828124,216.79882623242855,134.29808695566197,2024-06-05 15:22:42.086998,-0.3090629182032987,0.951041346345307,0.0006856627209984
2024-06-05 15:22:42.093953,47.51145038167939,-1.5190839694656488,-1.8244274809160304,0.2250549560546874,3.028665100097656,8.432378247070313,216.79890086038054,134.29821387781638,2024-06-05 15:22:42.093953,-0.3090629182032987,0.951041346345307,0.0006856627209984
2024-06-05 15:22:42.100901,47.48091603053435,-1.4580152671755726,-1.9465648854961832,0.2466027709960937,2.7246014892578123,8.468291271972657,216.79897548833253,134.29834079997076,2024-06-05 15:22:42.100901,-0.3090629182032987,0.951041346345307,0.0006856627209984
2024-06-05 15:22:42.107826,47.534351145038165,-1.3740458015267176,-2.351145038167939,0.373495458984375,2.906560815429687,8.583212951660157,216.79905011628452,134.29846772212517,2024-06-05 15:22:42.107826,-0.3090629182032987,0.951041346345307,0.0006856627209984
2024-06-05 15:22:42.114806,47.47328244274809,-1.1603053435114503,-2.6717557251908395,0.3519476440429687,2.7748797241210936,8.489839086914062,216.7991247442365,134.29859464427958,2024-06-05 15:22:42.114806,-0.3090629182032987,0.951041346345307,0.0006856627209984
2024-06-05 15:22:42.121774,47.63358778625954,-1.2900763358778626,-2.931297709923664,0.258573779296875,2.810792749023437,8.377311608886718,216.7991993721885,134.29872156643398,2024-06-05 15:22:42.121774,-0.3090629182032987,0.951041346345307,0.0006856627209984
2024-06-05 15:22:42.128696,47.50381679389313,-1.4274809160305344,-3.137404580152672,0.1149216796875,2.877830395507812,8.398859423828124,216.79927400014049,134.2988484885884,2024-06-05 15:22:42.128696,-0.3090629182032987,0.951041346345307,0.0006856627209984
2024-06-05 15:22:42.135625,47.47328244274809,-1.6870229007633588,-3.381679389312977,0.1005564697265625,2.7844565307617186,8.391676818847655,216.79934862809247,134.2989754107428,2024-06-05 15:22:42.135625,-0.3090629182032987,0.951041346345307,0.0006856627209984
2024-06-05 15:22:42.142593,47.13740458015267,-1.7709923664122138,-3.236641221374046,0.2801215942382812,2.801215942382812,8.432378247070313,216.79942325604443,134.2991023328972,2024-06-05 15:22:42.142593,-0.3090629182032987,0.951041346345307,0.0006856627209984
2024-06-05 15:22:42.149719,47.00763358778626,-1.786259541984733,-2.969465648854962,0.28730419921875,2.748543505859375,8.497021691894531,216.79949788399642,134.2992292550516,2024-06-05 15:22:42.149719,-0.3090629182032987,0.951041346345307,0.0006856627209984
2024-06-05 15:22:42.156772,47.19083969465649,-1.5038167938931295,-2.954198473282443,0.3926490722656249,2.7581203125,8.288726147460936,216.7995725119484,134.299356177206,2024-06-05 15:22:42.156772,-0.3090629182032987,0.951041346345307,0.0006856627209984
2024-06-05 15:22:42.163955,47.70229007633588,-1.297709923664122,-2.7099236641221376,0.3399766357421875,2.73896669921875,8.429984045410155,216.7996471399004,134.2994830993604,2024-06-05 15:22:42.163955,-0.3090629182032987,0.951041346345307,0.0006856627209984
2024-06-05 15:22:42.171119,47.786259541984734,-1.2442748091603053,-2.206106870229008,0.354341845703125,2.801215942382812,8.456320263671875,216.7997217678524,134.2996100215148,2024-06-05 15:22:42.171119,-0.3090629182032987,0.951041346345307,0.0006856627209984
2024-06-05 15:22:42.178001,48.06106870229008,-1.1450381679389312,-3.908396946564885,0.28730419921875,2.868253588867187,8.506598498535157,216.79979639580438,134.29973694366922,2024-06-05 15:22:42.178001,-0.3090629182032987,0.951041346345307,0.0006856627209984
2024-06-05 15:22:42.185122,47.93893129770992,-1.1526717557251909,-1.5954198473282444,0.1340752929687499,3.0047230834960934,8.348581188964843,216.79987102375637,134.29986386582362,2024-06-05 15:22:42.185122,-0.3090629182032987,0.951041346345307,0.0006856627209984
2024-06-05 15:22:42.192048,47.595419847328245,-1.2290076335877862,-1.183206106870229,0.0167594116210937,3.0837317382812497,8.2743609375,216.79994565170836,134.29999078797803,2024-06-05 15:22:42.192048,-0.3090629182032987,0.951041346345307,0.0006856627209984
2024-06-05 15:22:42.199003,47.46564885496184,-1.183206106870229,-1.0,0.1268926879882812,3.040636108398437,8.2360537109375,216.80002027966034,134.30011771013244,2024-06-05 15:22:42.199003,-0.3090629182032987,0.951041346345307,0.0006856627209984
2024-06-05 15:22:42.205967,47.54198473282442,-1.5190839694656488,-0.9083969465648856,-0.0071826049804687,3.0142998901367184,8.343792785644531,216.80009490761233,134.30024463228682,2024-06-05 15:22:42.205967,-0.3090629182032987,0.951041346345307,0.0006856627209984
2024-06-05 15:22:42.213141,47.55725190839695,-1.5267175572519085,-0.5572519083969466,0.0430956298828125,3.057395520019531,8.425195642089843,216.8001695355643,134.30037155444123,2024-06-05 15:22:42.213141,-0.3090629182032987,0.951041346345307,0.0006856627209984
2024-06-05 15:22:42.220576,47.595419847328245,-1.4961832061068705,-0.5877862595419847,0.1364694946289062,2.810792749023437,8.449137658691406,216.80024416351628,134.30049847659564,2024-06-05 15:22:42.220576,-0.3090629182032987,0.951041346345307,0.0006856627209984
2024-06-05 15:22:42.227490,47.87786259541985,-1.2290076335877862,-0.7480916030534351,0.2561795776367187,2.73896669921875,8.475473876953124,216.80031879146827,134.30062539875004,2024-06-05 15:22:42.227490,-0.3090629182032987,0.951041346345307,0.0006856627209984
2024-06-05 15:22:42.234365,47.91603053435114,-1.068702290076336,-0.8625954198473282,0.3064578125,2.7269956909179687,8.449137658691406,216.80039341942026,134.30075232090445,2024-06-05 15:22:42.234365,-0.3090629182032987,0.951041346345307,0.0006856627209984
2024-06-05 15:22:42.241292,47.7557251908397,-1.1603053435114503,-1.2748091603053435,0.2609679809570312,2.710236279296875,8.429984045410155,216.80046804737225,134.30087924305886,2024-06-05 15:22:42.241292,-0.3090629182032987,0.951041346345307,0.0006856627209984
2024-06-05 15:22:42.248312,47.61832061068702,-1.0305343511450382,-1.6946564885496185,0.2992752075195312,2.712630480957031,8.456320263671875,216.80054267532424,134.30100616521327,2024-06-05 15:22:42.248312,-0.3090629182032987,0.951041346345307,0.0006856627209984
2024-06-05 15:22:42.255375,47.63358778625954,-1.534351145038168,-0.0916030534351145,0.1915361328124999,2.729389892578125,8.281543542480469,216.80061730327623,134.30113308736767,2024-06-05 15:22:42.255375,-0.3090629182032987,0.951041346345307,0.0006856627209984
2024-06-05 15:22:42.262249,47.57251908396947,-1.6030534351145038,-2.236641221374046,0.17238251953125,2.7844565307617186,8.434772448730468,216.80069193122822,134.30126000952205,2024-06-05 15:22:42.262249,-0.3090629182032987,0.951041346345307,0.0006856627209984
2024-06-05 15:22:42.269103,47.86259541984733,-1.3587786259541983,-2.3587786259541983,0.3471592407226562,2.806004345703125,8.384494213867187,216.8007665591802,134.30138693167646,2024-06-05 15:22:42.269103,-0.3090629182032987,0.951041346345307,0.0006856627209984
2024-06-05 15:22:42.275866,47.82442748091603,-1.3511450381679388,-1.938931297709924,0.229843359375,2.920926025390625,8.379705810546875,216.80084118713216,134.30151385383087,2024-06-05 15:22:42.275866,-0.3090629182032987,0.951041346345307,0.0006856627209984
2024-06-05 15:22:42.282608,47.33587786259542,-1.3969465648854962,-1.8244274809160304,0.2705447875976562,3.0358477050781247,8.40843623046875,216.80091581508415,134.30164077598528,2024-06-05 15:22:42.282608,-0.3090629182032987,0.951041346345307,0.0006856627209984
2024-06-05 15:22:42.289351,47.54198473282442,-1.3969465648854962,-1.618320610687023,0.21068974609375,2.9855694702148434,8.374917407226562,216.80099044303614,134.30176769813968,2024-06-05 15:22:42.289351,-0.3090629182032987,0.951041346345307,0.0006856627209984
2024-06-05 15:22:42.296125,47.37404580152672,-1.1908396946564883,-1.5725190839694656,0.3351882324218749,2.9927520751953125,8.350975390624999,216.80106507098813,134.3018946202941,2024-06-05 15:22:42.296125,-0.3090629182032987,0.951041346345307,0.0006856627209984
2024-06-05 15:22:42.303080,47.47328244274809,-1.1984732824427482,-1.0534351145038168,0.3878606689453124,2.9831752685546875,8.470685473632813,216.80113969894012,134.3020215424485,2024-06-05 15:22:42.303080,-0.3090629182032987,0.951041346345307,0.0006856627209984
2024-06-05 15:22:42.309952,47.52671755725191,-1.1450381679389312,-0.6793893129770993,0.3591302490234375,2.9544448486328125,8.384494213867187,216.8012143268921,134.30214846460288,2024-06-05 15:22:42.309952,-0.3090629182032987,0.951041346345307,0.0006856627209984
2024-06-05 15:22:42.316728,47.93893129770992,-1.1450381679389312,-0.366412213740458,0.3184288208007812,2.9568390502929685,8.394071020507813,216.8012889548441,134.3022753867573,2024-06-05 15:22:42.316728,-0.3090629182032987,0.951041346345307,0.0006856627209984
2024-06-05 15:22:42.323500,47.7175572519084,-1.068702290076336,-0.3969465648854962,0.3088520141601562,3.0166940917968748,8.374917407226562,216.80136358279609,134.3024023089117,2024-06-05 15:22:42.323500,-0.3090629182032987,0.951041346345307,0.0006856627209984
2024-06-05 15:22:42.330263,47.81679389312977,-1.099236641221374,-0.5725190839694656,0.1675941162109374,3.040636108398437,8.492233288574218,216.80143821074807,134.3025292310661,2024-06-05 15:22:42.330263,-0.3090629182032987,0.951041346345307,0.0006856627209984
2024-06-05 15:22:42.337012,47.595419847328245,-1.282442748091603,-0.7709923664122137,0.316034619140625,2.999934680175781,8.382100012207031,216.80151283870006,134.3026561532205,2024-06-05 15:22:42.337012,-0.3090629182032987,0.951041346345307,0.0006856627209984
2024-06-05 15:22:42.343790,47.23664122137404,-1.1526717557251909,-0.7709923664122137,0.2442085693359375,2.978386865234375,8.418013037109375,216.80158746665202,134.30278307537492,2024-06-05 15:22:42.343790,-0.3090629182032987,0.951041346345307,0.0006856627209984
2024-06-05 15:22:42.350537,47.19083969465649,-1.282442748091603,-0.6870229007633588,0.2250549560546874,2.8945898071289062,8.532934716796875,216.801662094604,134.30290999752933,2024-06-05 15:22:42.350537,-0.3090629182032987,0.951041346345307,0.0006856627209984
2024-06-05 15:22:42.357321,47.1526717557252,-1.0916030534351144,-1.0610687022900764,0.3112462158203125,2.806004345703125,8.434772448730468,216.801736722556,134.30303691968373,2024-06-05 15:22:42.357321,-0.3090629182032987,0.951041346345307,0.0006856627209984
2024-06-05 15:22:42.364079,47.11450381679389,-1.213740458015267,-1.3358778625954195,0.2442085693359375,2.8371289672851563,8.413224633789062,216.801811350508,134.3031638418381,2024-06-05 15:22:42.364079,-0.3090629182032987,0.951041346345307,0.0006856627209984
2024-06-05 15:22:42.370879,47.396946564885496,-1.1068702290076335,-1.5954198473282444,0.2633621826171874,2.779668127441406,8.44674345703125,216.80188597845998,134.30329076399252,2024-06-05 15:22:42.370879,-0.3090629182032987,0.951041346345307,0.0006856627209984
2024-06-05 15:22:42.377978,47.40458015267176,-1.3053435114503815,-1.8931297709923665,0.201112939453125,2.6384102294921874,8.453926062011718,216.80196060641197,134.30341768614693,2024-06-05 15:22:42.377978,-0.3090629182032987,0.951041346345307,0.0006856627209984
2024-06-05 15:22:42.384784,47.2824427480916,-1.2290076335877862,-2.0381679389312977,0.1771709228515625,2.750937707519531,8.372523205566406,216.80203523436396,134.30354460830134,2024-06-05 15:22:42.384784,-0.3090629182032987,0.951041346345307,0.0006856627209984
2024-06-05 15:22:42.391556,47.27480916030535,-1.0229007633587786,-2.137404580152672,0.2035071411132812,2.794033337402344,8.339004382324218,216.80210986231594,134.30367153045574,2024-06-05 15:22:42.391556,-0.3090629182032987,0.951041346345307,0.0006856627209984
2024-06-05 15:22:42.398320,46.90076335877863,-1.1450381679389312,-2.3206106870229006,0.1292868896484375,2.849099975585937,8.346186987304687,216.80218449026793,134.30379845261015,2024-06-05 15:22:42.398320,-0.3090629182032987,0.951041346345307,0.0006856627209984
2024-06-05 15:22:42.405553,47.10687022900763,-1.3282442748091603,-2.206106870229008,0.0885854614257812,2.8610709838867185,8.449137658691406,216.8022591182199,134.30392537476456,2024-06-05 15:22:42.405553,-0.3090629182032987,0.951041346345307,0.0006856627209984
2024-06-05 15:22:42.412969,47.23664122137404,-1.251908396946565,-2.106870229007633,0.1580173095703125,2.8036101440429686,8.530540515136718,216.80233374617188,134.30405229691894,2024-06-05 15:22:42.412969,-0.3090629182032987,0.951041346345307,0.0006856627209984
2024-06-05 15:22:42.419811,47.31297709923664,-1.297709923664122,-1.786259541984733,0.1101332763671874,2.8036101440429686,8.418013037109375,216.80240837412387,134.30417921907335,2024-06-05 15:22:42.419811,-0.3090629182032987,0.951041346345307,0.0006856627209984
2024-06-05 15:22:42.426598,47.17557251908397,-1.282442748091603,-1.5572519083969465,0.1508347045898437,2.786850732421875,8.427589843749999,216.80248300207586,134.30430614122776,2024-06-05 15:22:42.426598,-0.3090629182032987,0.951041346345307,0.0006856627209984
2024-06-05 15:22:42.433820,47.16793893129771,-1.2213740458015268,-1.4885496183206106,0.1244984863281249,2.825157958984375,8.360552197265624,216.80255763002785,134.30443306338216,2024-06-05 15:22:42.433820,-0.3090629182032987,0.951041346345307,0.0006856627209984
2024-06-05 15:22:42.440733,47.40458015267176,-1.1374045801526718,-1.5725190839694656,0.1651999145507812,2.6096798095703124,8.360552197265624,216.80263225797984,134.30455998553657,2024-06-05 15:22:42.440733,-0.3090629182032987,0.951041346345307,0.0006856627209984
2024-06-05 15:22:42.447728,47.70229007633588,-1.3740458015267176,-1.5267175572519085,0.2226607543945312,2.7078420776367187,8.312668164062499,216.80270688593183,134.30468690769098,2024-06-05 15:22:42.447728,-0.3090629182032987,0.951041346345307,0.0006856627209984
2024-06-05 15:22:42.454522,47.595419847328245,-1.267175572519084,-1.6106870229007633,0.17238251953125,2.8467057739257813,8.556876733398436,216.80278151388382,134.3048138298454,2024-06-05 15:22:42.454522,-0.3090629182032987,0.951041346345307,0.0006856627209984
2024-06-05 15:22:42.461393,47.6030534351145,-1.4427480916030535,-1.450381679389313,0.1939303344726562,2.6623522460937497,8.513781103515624,216.8028561418358,134.30494075199977,2024-06-05 15:22:42.461393,-0.3090629182032987,0.951041346345307,0.0006856627209984
2024-06-05 15:22:42.468456,47.43511450381679,-1.366412213740458,-1.465648854961832,0.2130839477539062,2.683900061035156,8.29351455078125,216.8029307697878,134.30506767415417,2024-06-05 15:22:42.468456,-0.3090629182032987,0.951041346345307,0.0006856627209984
2024-06-05 15:22:42.475261,47.70229007633588,-1.236641221374046,-1.6870229007633588,0.229843359375,2.681505859375,8.573636145019531,216.80300539773975,134.30519459630858,2024-06-05 15:22:42.475261,-0.3090629182032987,0.951041346345307,0.0006856627209984
2024-06-05 15:22:42.482454,47.74809160305343,-1.4732824427480915,-1.763358778625954,0.229843359375,2.715024682617188,8.566453540039062,216.80308002569174,134.305321518463,2024-06-05 15:22:42.482454,-0.3090629182032987,0.951041346345307,0.0006856627209984
2024-06-05 15:22:42.489517,47.57251908396947,-1.1908396946564883,-1.6259541984732824,0.239420166015625,2.73896669921875,8.566453540039062,216.80315465364373,134.3054484406174,2024-06-05 15:22:42.489517,-0.3090629182032987,0.951041346345307,0.0006856627209984
2024-06-05 15:22:42.496312,47.54961832061068,-1.3511450381679388,-1.4809160305343512,0.2226607543945312,2.858676782226562,8.348581188964843,216.80322928159572,134.3055753627718,2024-06-05 15:22:42.496312,-0.3090629182032987,0.951041346345307,0.0006856627209984
2024-06-05 15:22:42.503156,47.81679389312977,-1.4351145038167938,-1.6412213740458017,0.1604115112304687,2.717418884277344,8.497021691894531,216.8033039095477,134.3057022849262,2024-06-05 15:22:42.503156,-0.3090629182032987,0.951041346345307,0.0006856627209984
2024-06-05 15:22:42.510090,47.93129770992366,-1.2442748091603053,-1.3053435114503815,0.4141968872070312,2.607285607910156,8.432378247070313,216.80338498281506,134.30582920708062,2024-06-05 15:22:42.510090,-0.3090629182032987,0.951041346345307,0.0006856627209984
2024-06-05 15:22:42.517025,47.89312977099237,-1.2061068702290076,-1.3511450381679388,0.2346317626953125,2.827552160644532,8.418013037109375,216.80346605608239,134.305956129235,2024-06-05 15:22:42.517025,-0.3090629182032987,0.951041346345307,0.0006856627209984
2024-06-05 15:22:42.523836,47.80916030534351,-1.3358778625954195,-1.2442748091603053,0.1963245361328124,2.81558115234375,8.394071020507813,216.80354712934974,134.3060830513894,2024-06-05 15:22:42.523836,-0.3090629182032987,0.951041346345307,0.0006856627209984
2024-06-05 15:22:42.531013,47.76335877862596,-1.3587786259541983,-1.1221374045801529,0.296881005859375,2.839523168945312,8.571241943359375,216.8036282026171,134.30620997354382,2024-06-05 15:22:42.531013,-0.3090629182032987,0.951041346345307,0.0006856627209984
2024-06-05 15:22:42.537868,48.00763358778626,-1.465648854961832,-0.9465648854961832,0.2681505859374999,2.8754361938476563,8.36294639892578,216.80370927588444,134.30633689569822,2024-06-05 15:22:42.537868,-0.3090629182032987,0.951041346345307,0.0006856627209984
2024-06-05 15:22:42.544727,48.00763358778626,-1.3587786259541983,-0.6641221374045801,0.2178723510742187,2.9089550170898435,8.350975390624999,216.80379034915177,134.30646381785263,2024-06-05 15:22:42.544727,-0.3090629182032987,0.951041346345307,0.0006856627209984
2024-06-05 15:22:42.551558,48.06106870229008,-1.2595419847328244,-0.816793893129771,0.229843359375,3.0238766967773434,8.37012900390625,216.80387142241912,134.30659074000704,2024-06-05 15:22:42.551558,-0.3090629182032987,0.951041346345307,0.0006856627209984
2024-06-05 15:22:42.558549,47.69465648854962,-1.4122137404580153,-0.8854961832061069,0.2370259643554687,2.877830395507812,8.365340600585936,216.80395249568647,134.30671766216145,2024-06-05 15:22:42.558549,-0.3090629182032987,0.951041346345307,0.0006856627209984
2024-06-05 15:22:42.565317,48.083969465648856,-1.251908396946565,-0.9465648854961832,0.201112939453125,2.889801403808593,8.434772448730468,216.8040335689538,134.30684458431583,2024-06-05 15:22:42.565317,-0.3090629182032987,0.951041346345307,0.0006856627209984
2024-06-05 15:22:42.572152,47.88549618320611,-1.381679389312977,-1.2442748091603053,0.2801215942382812,2.8754361938476563,8.36294639892578,216.80411464222115,134.30697150647023,2024-06-05 15:22:42.572152,-0.3090629182032987,0.951041346345307,0.0006856627209984
2024-06-05 15:22:42.579181,47.79389312977099,-1.2061068702290076,-1.267175572519084,0.181959326171875,2.887407202148437,8.470685473632813,216.8041957154885,134.30709842862464,2024-06-05 15:22:42.579181,-0.3090629182032987,0.951041346345307,0.0006856627209984
2024-06-05 15:22:42.585994,47.70229007633588,-1.4045801526717556,-1.549618320610687,0.17238251953125,2.89219560546875,8.40125362548828,216.80427678875583,134.30722535077905,2024-06-05 15:22:42.585994,-0.3090629182032987,0.951041346345307,0.0006856627209984
2024-06-05 15:22:42.592765,47.61832061068702,-1.3893129770992367,-1.748091603053435,0.1580173095703125,2.885013000488281,8.410830432128906,216.80435786202318,134.30735227293346,2024-06-05 15:22:42.592765,-0.3090629182032987,0.951041346345307,0.0006856627209984
2024-06-05 15:22:42.599608,47.82442748091603,-1.6106870229007633,-1.877862595419848,0.2346317626953125,2.928108630371093,8.568847741699217,216.80443893529053,134.30747919508786,2024-06-05 15:22:42.599608,-0.3090629182032987,0.951041346345307,0.0006856627209984
2024-06-05 15:22:42.606464,47.49618320610687,-1.4732824427480915,-1.916030534351145,0.2513911743164062,2.940079638671875,8.336610180664062,216.80452000855786,134.30760611724227,2024-06-05 15:22:42.606464,-0.3090629182032987,0.951041346345307,0.0006856627209984
2024-06-05 15:22:42.614452,47.786259541984734,-1.1450381679389312,-0.0305343511450381,0.2178723510742187,2.964021655273437,8.281543542480469,216.8046010818252,134.30773303939668,2024-06-05 15:22:42.614452,-0.3090629182032987,0.951041346345307,0.0006856627209984
2024-06-05 15:22:42.621570,47.49618320610687,-1.3206106870229009,-2.0,0.2633621826171874,2.952050646972656,8.391676818847655,216.80468215509256,134.30785996155106,2024-06-05 15:22:42.621570,-0.3090629182032987,0.951041346345307,0.0006856627209984
2024-06-05 15:22:42.628486,47.20610687022901,-1.3893129770992367,-1.702290076335878,0.2346317626953125,3.0334535034179684,8.540117321777343,216.80476322835992,134.30798688370547,2024-06-05 15:22:42.628486,-0.3090629182032987,0.951041346345307,0.0006856627209984
2024-06-05 15:22:42.635540,47.43511450381679,-1.183206106870229,-1.534351145038168,0.2609679809570312,2.9472622436523435,8.288726147460936,216.80484430162724,134.30811380585988,2024-06-05 15:22:42.635540,-0.3090629182032987,0.951041346345307,0.0006856627209984
2024-06-05 15:22:42.642433,47.2824427480916,-1.1984732824427482,-1.5267175572519085,0.2537853759765625,2.987963671875,8.437166650390624,216.8049253748946,134.30824072801428,2024-06-05 15:22:42.642433,-0.3090629182032987,0.951041346345307,0.0006856627209984
2024-06-05 15:22:42.650285,47.43511450381679,-1.3358778625954195,-1.282442748091603,0.2035071411132812,3.002328881835937,8.374917407226562,216.80500644816195,134.3083676501687,2024-06-05 15:22:42.650285,-0.3090629182032987,0.951041346345307,0.0006856627209984
2024-06-05 15:22:42.657411,47.58015267175573,-1.1297709923664123,-1.3435114503816794,0.2346317626953125,2.93050283203125,8.303091357421874,216.80508752142927,134.3084945723231,2024-06-05 15:22:42.657411,-0.3090629182032987,0.951041346345307,0.0006856627209984
2024-06-05 15:22:42.664588,47.44274809160305,-1.2290076335877862,-1.0229007633587786,0.2513911743164062,2.9185318237304685,8.463502868652343,216.80516859469662,134.3086214944775,2024-06-05 15:22:42.664588,-0.3090629182032987,0.951041346345307,0.0006856627209984
2024-06-05 15:22:42.671595,47.36641221374046,-1.1450381679389312,-1.1526717557251909,0.239420166015625,2.9735984619140625,8.403647827148436,216.80524966796398,134.3087484166319,2024-06-05 15:22:42.671595,-0.3090629182032987,0.951041346345307,0.0006856627209984
2024-06-05 15:22:42.679530,47.25954198473283,-1.4045801526717556,-1.1526717557251909,0.2250549560546874,2.896984008789062,8.420407238769531,216.80533074123133,134.3088753387863,2024-06-05 15:22:42.679530,-0.3090629182032987,0.951041346345307,0.0006856627209984
2024-06-05 15:22:42.686712,47.50381679389313,-1.465648854961832,-1.3358778625954195,0.2130839477539062,2.9089550170898435,8.360552197265624,216.80541181449865,134.3090022609407,2024-06-05 15:22:42.686712,-0.3090629182032987,0.951041346345307,0.0006856627209984
2024-06-05 15:22:42.693655,47.045801526717554,-1.534351145038168,-1.5877862595419847,0.2322375610351562,2.964021655273437,8.303091357421874,216.805492887766,134.3091291830951,2024-06-05 15:22:42.693655,-0.3090629182032987,0.951041346345307,0.0006856627209984
2024-06-05 15:22:42.700845,47.2824427480916,-1.2213740458015268,-1.7251908396946565,0.3615244506835937,2.868253588867187,8.449137658691406,216.80557396103336,134.30925610524952,2024-06-05 15:22:42.700845,-0.3090629182032987,0.951041346345307,0.0006856627209984
2024-06-05 15:22:42.707797,47.47328244274809,-1.3435114503816794,-1.5877862595419847,0.3471592407226562,2.906560815429687,8.475473876953124,216.80565503430068,134.30938302740392,2024-06-05 15:22:42.707797,-0.3090629182032987,0.951041346345307,0.0006856627209984
2024-06-05 15:22:42.716266,47.23664122137404,-1.5648854961832062,-1.8396946564885497,0.1795651245117187,2.85388837890625,8.425195642089843,216.80573610756804,134.30950994955833,2024-06-05 15:22:42.716266,-0.3090629182032987,0.951041346345307,0.0006856627209984
2024-06-05 15:22:42.723277,47.267175572519086,-1.083969465648855,-2.213740458015267,0.2920926025390625,2.832340563964844,8.40843623046875,216.8058171808354,134.30963687171274,2024-06-05 15:22:42.723277,-0.3090629182032987,0.951041346345307,0.0006856627209984
2024-06-05 15:22:42.730168,47.48854961832061,-1.1297709923664123,-2.427480916030534,0.2633621826171874,2.7581203125,8.339004382324218,216.80589825410271,134.30976379386712,2024-06-05 15:22:42.730168,-0.3090629182032987,0.951041346345307,0.0006856627209984
2024-06-05 15:22:42.737187,47.46564885496184,-1.4580152671755726,-2.045801526717557,0.0957680664062499,2.7078420776367187,8.355763793945313,216.80597932737007,134.30989071602153,2024-06-05 15:22:42.737187,-0.3090629182032987,0.951041346345307,0.0006856627209984
2024-06-05 15:22:42.744463,47.412213740458014,-1.3053435114503815,-2.137404580152672,0.0,2.7246014892578123,8.40125362548828,216.80606040063742,134.31001763817594,2024-06-05 15:22:42.744463,-0.3090629182032987,0.951041346345307,0.0006856627209984
2024-06-05 15:22:42.751865,47.25190839694657,-1.183206106870229,-2.0381679389312977,0.1556231079101562,2.722207287597656,8.410830432128906,216.80614147390474,134.31014456033034,2024-06-05 15:22:42.751865,-0.3090629182032987,0.951041346345307,0.0006856627209984
2024-06-05 15:22:42.758809,47.74809160305343,-1.3893129770992367,-1.801526717557252,0.1867477294921875,2.559401574707031,8.499415893554687,216.8062225471721,134.31027148248475,2024-06-05 15:22:42.758809,-0.3090629182032987,0.951041346345307,0.0006856627209984
2024-06-05 15:22:42.765725,48.083969465648856,-1.16793893129771,-1.4732824427480915,0.2154781494140625,2.5953145996093747,8.468291271972657,216.80630362043945,134.31039840463916,2024-06-05 15:22:42.765725,-0.3090629182032987,0.951041346345307,0.0006856627209984
2024-06-05 15:22:42.772636,47.88549618320611,-1.4122137404580153,-1.5190839694656488,0.1197100830078125,2.6288334228515624,8.44674345703125,216.8063846937068,134.31052532679357,2024-06-05 15:22:42.772636,-0.3090629182032987,0.951041346345307,0.0006856627209984
2024-06-05 15:22:42.779709,47.93893129770992,-1.3435114503816794,-1.3053435114503815,0.0646434448242187,2.60489140625,8.36294639892578,216.80646576697413,134.31065224894795,2024-06-05 15:22:42.779709,-0.3090629182032987,0.951041346345307,0.0006856627209984
2024-06-05 15:22:42.787035,48.20610687022901,-1.2442748091603053,-1.5190839694656488,0.2849099975585937,2.717418884277344,8.55448253173828,216.80654684024148,134.31077917110235,2024-06-05 15:22:42.787035,-0.3090629182032987,0.951041346345307,0.0006856627209984
2024-06-05 15:22:42.793959,48.36641221374046,-1.4274809160305344,-1.099236641221374,0.1628057128906249,2.5857377929687497,8.432378247070313,216.80662791350883,134.31090609325676,2024-06-05 15:22:42.793959,-0.3090629182032987,0.951041346345307,0.0006856627209984
2024-06-05 15:22:42.800889,48.16793893129771,-1.381679389312977,-0.7938931297709924,0.0598550415039062,2.501940734863281,8.453926062011718,216.80670898677616,134.31103301541117,2024-06-05 15:22:42.800889,-0.3090629182032987,0.951041346345307,0.0006856627209984
2024-06-05 15:22:42.807795,48.36641221374046,-1.4732824427480915,-0.5343511450381679,0.0981622680664062,2.5234885498046875,8.566453540039062,216.8067900600435,134.31115993756558,2024-06-05 15:22:42.807795,-0.3090629182032987,0.951041346345307,0.0006856627209984
2024-06-05 15:22:42.815406,48.55725190839695,-1.3893129770992367,-0.5190839694656488,0.1460463012695312,2.6312276245117188,8.377311608886718,216.80687113331086,134.31128685971998,2024-06-05 15:22:42.815406,-0.3090629182032987,0.951041346345307,0.0006856627209984
2024-06-05 15:22:42.822332,48.7175572519084,-1.2213740458015268,-0.3816793893129771,0.2274491577148437,2.7341782958984373,8.497021691894531,216.8069522065782,134.3114137818744,2024-06-05 15:22:42.822332,-0.3090629182032987,0.951041346345307,0.0006856627209984
2024-06-05 15:22:42.829261,48.70992366412214,-1.2748091603053435,-0.1908396946564885,0.2226607543945312,2.789244934082031,8.552088330078124,216.80703327984554,134.3115407040288,2024-06-05 15:22:42.829261,-0.3090629182032987,0.951041346345307,0.0006856627209984
2024-06-05 15:22:42.836325,48.58015267175573,-1.3358778625954195,0.0381679389312977,0.1628057128906249,2.7820623291015623,8.406042028808594,216.8071143531129,134.31166762618318,2024-06-05 15:22:42.836325,-0.3090629182032987,0.951041346345307,0.0006856627209984
2024-06-05 15:22:42.843565,48.6030534351145,-1.4580152671755726,0.3206106870229007,0.258573779296875,2.89219560546875,8.406042028808594,216.80719542638025,134.3117945483376,2024-06-05 15:22:42.843565,-0.3090629182032987,0.951041346345307,0.0006856627209984
2024-06-05 15:22:42.851545,48.74045801526717,-1.3511450381679388,0.465648854961832,0.2705447875976562,2.928108630371093,8.374917407226562,216.80727649964757,134.311921470492,2024-06-05 15:22:42.851545,-0.3090629182032987,0.951041346345307,0.0006856627209984
2024-06-05 15:22:42.858475,49.06106870229008,-1.3740458015267176,0.7557251908396947,0.3088520141601562,3.071760729980469,7.953537915039062,216.80735757291492,134.3120483926464,2024-06-05 15:22:42.858475,-0.3090629182032987,0.951041346345307,0.0006856627209984
2024-06-05 15:22:42.865337,50.80152671755725,-1.4580152671755726,0.7786259541984732,0.2633621826171874,2.849099975585937,8.32463917236328,216.80743864618228,134.3121753148008,2024-06-05 15:22:42.865337,-0.3090629182032987,0.951041346345307,0.0006856627209984
2024-06-05 15:22:42.872704,48.64885496183206,-1.2900763358778626,1.1221374045801529,0.2466027709960937,3.1268273681640624,8.544905725097657,216.8075197194496,134.31230223695522,2024-06-05 15:22:42.872704,-0.3090629182032987,0.951041346345307,0.0006856627209984
2024-06-05 15:22:42.880086,48.98473282442748,-1.3206106870229009,1.4198473282442747,0.3902548706054687,2.978386865234375,8.346186987304687,216.80760079271695,134.31242915910963,2024-06-05 15:22:42.880086,-0.3090629182032987,0.951041346345307,0.0006856627209984
2024-06-05 15:22:42.887357,48.83969465648855,-1.2900763358778626,1.5267175572519085,0.181959326171875,2.923320227050781,8.307879760742187,216.8076818659843,134.312556081264,2024-06-05 15:22:42.887357,-0.3090629182032987,0.951041346345307,0.0006856627209984
2024-06-05 15:22:42.894264,48.48091603053435,-1.2442748091603053,1.3740458015267176,0.3830722656249999,2.9759926635742184,8.386888415527343,216.80776293925163,134.3126830034184,2024-06-05 15:22:42.894264,-0.3090629182032987,0.951041346345307,0.0006856627209984
2024-06-05 15:22:42.901301,48.85496183206107,-1.2595419847328244,1.465648854961832,0.1675941162109374,2.920926025390625,8.394071020507813,216.80784401251898,134.31280992557282,2024-06-05 15:22:42.901301,-0.3090629182032987,0.951041346345307,0.0006856627209984
2024-06-05 15:22:42.908111,48.51145038167939,-1.1908396946564883,1.8396946564885497,0.2513911743164062,2.9041666137695312,8.367734802246094,216.80792508578634,134.31293684772723,2024-06-05 15:22:42.908111,-0.3090629182032987,0.951041346345307,0.0006856627209984
2024-06-05 15:22:42.915757,48.80916030534351,-1.4732824427480915,1.6106870229007633,0.2513911743164062,2.889801403808593,8.358157995605469,216.8080061590537,134.31306376988164,2024-06-05 15:22:42.915757,-0.3090629182032987,0.951041346345307,0.0006856627209984
2024-06-05 15:22:42.922692,48.27480916030535,-1.1755725190839694,1.465648854961832,0.2920926025390625,3.0071172851562498,8.372523205566406,216.80808723232101,134.31319069203604,2024-06-05 15:22:42.922692,-0.3090629182032987,0.951041346345307,0.0006856627209984
2024-06-05 15:22:42.929883,48.76335877862596,-1.1603053435114503,1.4122137404580153,0.1580173095703125,2.9041666137695312,8.374917407226562,216.80816830558837,134.31331761419045,2024-06-05 15:22:42.929883,-0.3090629182032987,0.951041346345307,0.0006856627209984
2024-06-05 15:22:42.937199,48.55725190839695,-1.0229007633587786,1.465648854961832,0.3256114257812499,3.0358477050781247,8.382100012207031,216.80824937885572,134.31344453634486,2024-06-05 15:22:42.937199,-0.3090629182032987,0.951041346345307,0.0006856627209984
2024-06-05 15:22:42.944477,48.58015267175573,-1.1984732824427482,1.4045801526717556,0.239420166015625,2.961627453613281,8.420407238769531,216.80833045212304,134.31357145849924,2024-06-05 15:22:42.944477,-0.3090629182032987,0.951041346345307,0.0006856627209984
2024-06-05 15:22:42.951834,48.57251908396947,-1.297709923664122,1.4580152671755726,0.2729389892578124,2.9496564453125,8.410830432128906,216.8084115253904,134.31369838065365,2024-06-05 15:22:42.951834,-0.3090629182032987,0.951041346345307,0.0006856627209984
2024-06-05 15:22:42.958933,48.29770992366412,-1.3053435114503815,1.2061068702290076,0.2250549560546874,2.916137622070312,8.415618835449218,216.80849259865775,134.31382530280806,2024-06-05 15:22:42.958933,-0.3090629182032987,0.951041346345307,0.0006856627209984
2024-06-05 15:22:42.965727,48.50381679389313,-1.1526717557251909,1.2061068702290076,0.1867477294921875,2.940079638671875,8.353369592285155,216.8085736719251,134.31395222496246,2024-06-05 15:22:42.965727,-0.3090629182032987,0.951041346345307,0.0006856627209984
2024-06-05 15:22:42.972526,48.045801526717554,-1.3358778625954195,1.1374045801526718,0.1675941162109374,3.0358477050781247,8.339004382324218,216.80865474519243,134.31407914711687,2024-06-05 15:22:42.972526,-0.3090629182032987,0.951041346345307,0.0006856627209984
2024-06-05 15:22:42.979534,47.98473282442748,-0.9083969465648856,0.9389312977099236,0.2082955444335937,2.9041666137695312,8.422801440429687,216.80873581845978,134.31420606927128,2024-06-05 15:22:42.979534,-0.3090629182032987,0.951041346345307,0.0006856627209984
2024-06-05 15:22:42.986802,48.09160305343512,-1.251908396946565,0.931297709923664,0.2729389892578124,2.91134921875,8.489839086914062,216.80881689172713,134.3143329914257,2024-06-05 15:22:42.986802,-0.3090629182032987,0.951041346345307,0.0006856627209984
2024-06-05 15:22:42.993755,48.17557251908397,-1.3435114503816794,0.5725190839694656,0.1963245361328124,2.935291235351562,8.501810095214843,216.80889796499446,134.31445991358007,2024-06-05 15:22:42.993755,-0.3090629182032987,0.951041346345307,0.0006856627209984
2024-06-05 15:22:43.000862,48.22900763358778,-1.236641221374046,0.4503816793893129,0.2609679809570312,2.868253588867187,8.2743609375,216.8089790382618,134.31458683573447,2024-06-05 15:22:43.000862,-0.3090629182032987,0.951041346345307,0.0006856627209984
2024-06-05 15:22:43.007679,47.93893129770992,-1.1374045801526718,0.2213740458015267,0.2322375610351562,2.8610709838867185,8.429984045410155,216.80906011152916,134.31471375788888,2024-06-05 15:22:43.007679,-0.3090629182032987,0.951041346345307,0.0006856627209984
2024-06-05 15:22:43.016120,47.97709923664122,-1.1526717557251909,0.0305343511450381,0.2561795776367187,2.8945898071289062,8.391676818847655,216.8091411847965,134.3148406800433,2024-06-05 15:22:43.016120,-0.3090629182032987,0.951041346345307,0.0006856627209984
2024-06-05 15:22:43.023163,47.74045801526717,-1.1068702290076335,-0.3053435114503817,0.277727392578125,2.91134921875,8.415618835449218,216.80922225806384,134.3149676021977,2024-06-05 15:22:43.023163,-0.3090629182032987,0.951041346345307,0.0006856627209984
2024-06-05 15:22:43.030134,47.7557251908397,-1.183206106870229,-0.5648854961832062,0.277727392578125,2.9376854370117185,8.499415893554687,216.8093033313312,134.3150945243521,2024-06-05 15:22:43.030134,-0.3090629182032987,0.951041346345307,0.0006856627209984
2024-06-05 15:22:43.037156,47.7557251908397,-1.0381679389312977,-0.9618320610687024,0.229843359375,2.8945898071289062,8.520963708496094,216.80938440459852,134.3152214465065,2024-06-05 15:22:43.037156,-0.3090629182032987,0.951041346345307,0.0006856627209984
2024-06-05 15:22:43.044257,47.56488549618321,-0.9847328244274808,-1.236641221374046,0.15322890625,2.89219560546875,8.544905725097657,216.80946547786587,134.31534836866092,2024-06-05 15:22:43.044257,-0.3090629182032987,0.951041346345307,0.0006856627209984
2024-06-05 15:22:43.051991,47.57251908396947,-1.282442748091603,-1.5572519083969465,0.3136404174804687,2.916137622070312,8.449137658691406,216.80954655113322,134.3154752908153,2024-06-05 15:22:43.051991,-0.3090629182032987,0.951041346345307,0.0006856627209984
2024-06-05 15:22:43.058980,47.22900763358778,-1.2442748091603053,-2.0839694656488548,0.1843535278320312,2.60489140625,9.02135185546875,216.80962762440058,134.3156022129697,2024-06-05 15:22:43.058980,-0.3090629182032987,0.951041346345307,0.0006856627209984
2024-06-05 15:22:43.065860,46.7175572519084,-1.702290076335878,-2.3053435114503817,0.0670376464843749,3.134009973144531,8.444349255371094,216.8097086976679,134.31572913512412,2024-06-05 15:22:43.065860,-0.3090629182032987,0.951041346345307,0.0006856627209984
2024-06-05 15:22:43.073002,46.90076335877863,-1.3053435114503815,-2.7099236641221376,0.3878606689453124,2.9376854370117185,8.374917407226562,216.80978977093525,134.31585605727852,2024-06-05 15:22:43.073002,-0.3090629182032987,0.951041346345307,0.0006856627209984
2024-06-05 15:22:43.080388,46.81679389312977,-1.7251908396946565,-2.885496183206107,0.2681505859374999,3.2345664428710936,8.13310303955078,216.8098708442026,134.31598297943293,2024-06-05 15:22:43.080388,-0.3090629182032987,0.951041346345307,0.0006856627209984
2024-06-05 15:22:43.087590,46.6412213740458,-1.4580152671755726,-3.33587786259542,0.3447650390625,3.2321722412109373,8.245630517578125,216.80995191746993,134.31610990158734,2024-06-05 15:22:43.087590,-0.3090629182032987,0.951041346345307,0.0006856627209984
2024-06-05 15:22:43.094721,47.2442748091603,-0.8778625954198473,-3.549618320610687,0.5602431884765625,2.834734765625,8.456320263671875,216.81003299073728,134.31623682374175,2024-06-05 15:22:43.094721,-0.3090629182032987,0.951041346345307,0.0006856627209984
2024-06-05 15:22:43.101656,47.46564885496184,-1.4809160305343512,-3.427480916030534,0.277727392578125,3.0454245117187497,8.322244970703125,216.81011406400464,134.31636374589613,2024-06-05 15:22:43.101656,-0.3090629182032987,0.951041346345307,0.0006856627209984
2024-06-05 15:22:43.108444,46.68702290076336,-3.885496183206107,-4.106870229007634,0.0694318481445312,3.2561142578125,8.341398583984375,216.81019513727196,134.31649066805053,2024-06-05 15:22:43.108444,-0.3090629182032987,0.951041346345307,0.0006856627209984
2024-06-05 15:22:43.116263,46.49618320610687,-1.2061068702290076,-4.7251908396946565,0.4501099121093749,3.0502129150390624,8.298302954101562,216.8102762105393,134.31661759020494,2024-06-05 15:22:43.116263,-0.3090629182032987,0.951041346345307,0.0006856627209984
2024-06-05 15:22:43.123189,46.19083969465649,-1.1145038167938932,-4.778625954198473,0.47884033203125,3.0789433349609374,8.379705810546875,216.81035728380667,134.31674451235935,2024-06-05 15:22:43.123189,-0.3090629182032987,0.951041346345307,0.0006856627209984
2024-06-05 15:22:43.130197,45.9236641221374,-1.702290076335878,-4.595419847328245,0.0933738647460937,3.0502129150390624,8.281543542480469,216.81043835707402,134.31687143451376,2024-06-05 15:22:43.130197,-0.3090629182032987,0.951041346345307,0.0006856627209984
2024-06-05 15:22:43.137461,46.3587786259542,-1.3206106870229009,-5.099236641221374,0.258573779296875,2.7198130859375,8.425195642089843,216.81051943034134,134.31699835666817,2024-06-05 15:22:43.137461,-0.3090629182032987,0.951041346345307,0.0006856627209984
2024-06-05 15:22:43.145238,46.23664122137404,-1.5801526717557253,-5.801526717557252,0.2226607543945312,2.89219560546875,8.312668164062499,216.8106005036087,134.31712527882257,2024-06-05 15:22:43.145238,-0.3090629182032987,0.951041346345307,0.0006856627209984
2024-06-05 15:22:43.152573,46.44274809160305,-1.809160305343512,-5.7251908396946565,0.1508347045898437,2.906560815429687,8.394071020507813,216.81068157687605,134.31725220097698,2024-06-05 15:22:43.152573,-0.3090629182032987,0.951041346345307,0.0006856627209984
2024-06-05 15:22:43.159525,46.458015267175576,-1.4045801526717556,-5.564885496183206,0.2681505859374999,2.896984008789062,8.372523205566406,216.81076265014337,134.31737912313136,2024-06-05 15:22:43.159525,-0.3090629182032987,0.951041346345307,0.0006856627209984
2024-06-05 15:22:43.166348,46.12213740458015,-1.6412213740458017,-5.984732824427481,0.2657563842773437,2.810792749023437,8.348581188964843,216.81084372341073,134.31750604528577,2024-06-05 15:22:43.166348,-0.3090629182032987,0.951041346345307,0.0006856627209984
2024-06-05 15:22:43.173440,45.76335877862596,-1.717557251908397,-6.1603053435114505,0.1628057128906249,2.868253588867187,8.44674345703125,216.81092479667808,134.31763296744018,2024-06-05 15:22:43.173440,-0.3090629182032987,0.951041346345307,0.0006856627209984
2024-06-05 15:22:43.181787,46.19847328244275,-1.2213740458015268,-6.106870229007634,0.3950432739257812,2.7629087158203123,8.453926062011718,216.8110058699454,134.31775988959458,2024-06-05 15:22:43.181787,-0.3090629182032987,0.951041346345307,0.0006856627209984
2024-06-05 15:22:43.188701,46.3587786259542,-1.465648854961832,-5.702290076335878,0.1556231079101562,2.9927520751953125,8.398859423828124,216.81108694321276,134.317886811749,2024-06-05 15:22:43.188701,-0.3090629182032987,0.951041346345307,0.0006856627209984
2024-06-05 15:22:43.195882,46.14503816793893,-1.3435114503816794,-5.648854961832061,0.143652099609375,2.810792749023437,8.377311608886718,216.8111680164801,134.3180137339034,2024-06-05 15:22:43.195882,-0.3090629182032987,0.951041346345307,0.0006856627209984
2024-06-05 15:22:43.202911,46.17557251908397,-1.2748091603053435,-5.305343511450381,0.2753331909179687,2.770091320800781,8.374917407226562,216.81124908974746,134.3181406560578,2024-06-05 15:22:43.202911,-0.3090629182032987,0.951041346345307,0.0006856627209984
2024-06-05 15:22:43.209805,46.30534351145038,-1.7557251908396947,-4.908396946564886,0.1316810913085937,2.916137622070312,8.173804467773436,216.8113301630148,134.3182675782122,2024-06-05 15:22:43.209805,-0.3090629182032987,0.951041346345307,0.0006856627209984
2024-06-05 15:22:43.217086,46.54198473282442,-1.549618320610687,-4.7251908396946565,0.0167594116210937,2.8467057739257813,8.221688500976562,216.81141123628214,134.3183945003666,2024-06-05 15:22:43.217086,-0.3090629182032987,0.951041346345307,0.0006856627209984
2024-06-05 15:22:43.224029,46.49618320610687,-1.1603053435114503,-4.8320610687022905,0.2178723510742187,2.6958710693359373,8.279149340820313,216.8114923095495,134.318521422521,2024-06-05 15:22:43.224029,-0.3090629182032987,0.951041346345307,0.0006856627209984
2024-06-05 15:22:43.230998,46.03053435114504,-1.4961832061068705,-4.351145038167939,0.1843535278320312,2.786850732421875,8.396465222167969,216.81157338281682,134.3186483446754,2024-06-05 15:22:43.230998,-0.3090629182032987,0.951041346345307,0.0006856627209984
2024-06-05 15:22:43.237920,46.63358778625954,-1.4961832061068705,-3.793893129770992,0.2561795776367187,2.6671406494140624,8.518569506835936,216.81165445608417,134.31877526682982,2024-06-05 15:22:43.237920,-0.3090629182032987,0.951041346345307,0.0006856627209984
2024-06-05 15:22:43.245603,48.69465648854962,-1.3206106870229009,-3.5877862595419847,0.2274491577148437,2.7054478759765623,8.463502868652343,216.81173552935152,134.31890218898423,2024-06-05 15:22:43.245603,-0.3090629182032987,0.951041346345307,0.0006856627209984
2024-06-05 15:22:43.253637,46.732824427480914,-1.3282442748091603,-3.5267175572519083,0.181959326171875,2.755726110839844,8.48505068359375,216.81181660261888,134.31902911113863,2024-06-05 15:22:43.253637,-0.3090629182032987,0.951041346345307,0.0006856627209984
2024-06-05 15:22:43.260589,44.96183206106871,-1.465648854961832,-3.351145038167939,0.2418143676757812,2.655169641113281,8.451531860351562,216.8118976758862,134.31915603329304,2024-06-05 15:22:43.260589,-0.3090629182032987,0.951041346345307,0.0006856627209984
2024-06-05 15:22:43.267468,47.0,-1.3435114503816794,-3.1297709923664123,0.1915361328124999,2.6001030029296874,8.418013037109375,216.81197874915355,134.31928295544742,2024-06-05 15:22:43.267468,-0.3090629182032987,0.951041346345307,0.0006856627209984
2024-06-05 15:22:43.274224,47.083969465648856,-1.3511450381679388,-2.50381679389313,0.1197100830078125,2.5761609863281247,8.396465222167969,216.8120598224209,134.31940987760183,2024-06-05 15:22:43.274224,-0.3090629182032987,0.951041346345307,0.0006856627209984
2024-06-05 15:22:43.282738,47.3587786259542,-1.2290076335877862,-2.3969465648854964,0.2705447875976562,2.559401574707031,8.358157995605469,216.81214089568823,134.31953679975624,2024-06-05 15:22:43.282738,-0.3090629182032987,0.951041346345307,0.0006856627209984
2024-06-05 15:22:43.289687,47.595419847328245,-1.4580152671755726,-2.0381679389312977,0.1915361328124999,2.676717456054688,8.458714465332031,216.81222196895558,134.31966372191064,2024-06-05 15:22:43.289687,-0.3090629182032987,0.951041346345307,0.0006856627209984
2024-06-05 15:22:43.296679,47.56488549618321,-1.2442748091603053,-1.931297709923664,0.1604115112304687,2.640804431152344,8.358157995605469,216.81230304222294,134.31979064406505,2024-06-05 15:22:43.296679,-0.3090629182032987,0.951041346345307,0.0006856627209984
2024-06-05 15:22:43.303758,47.66412213740458,-1.2061068702290076,-1.7709923664122138,0.3088520141601562,2.681505859375,8.339004382324218,216.81238411549026,134.31991756621946,2024-06-05 15:22:43.303758,-0.3090629182032987,0.951041346345307,0.0006856627209984
2024-06-05 15:22:43.311630,47.37404580152672,-1.0916030534351144,-1.1526717557251909,0.229843359375,2.786850732421875,8.406042028808594,216.8124651887576,134.32004448837387,2024-06-05 15:22:43.311630,-0.3090629182032987,0.951041346345307,0.0006856627209984
2024-06-05 15:22:43.318986,47.732824427480914,-1.2442748091603053,-0.6870229007633588,0.143652099609375,2.798821740722656,8.386888415527343,216.81254626202497,134.32017141052825,2024-06-05 15:22:43.318986,-0.3090629182032987,0.951041346345307,0.0006856627209984
2024-06-05 15:22:43.326058,47.70992366412214,-1.236641221374046,-0.6870229007633588,0.239420166015625,2.7246014892578123,8.396465222167969,216.8126273352923,134.32029833268265,2024-06-05 15:22:43.326058,-0.3090629182032987,0.951041346345307,0.0006856627209984
2024-06-05 15:22:43.332884,48.16030534351145,-1.297709923664122,-0.3969465648854962,0.1651999145507812,2.70065947265625,8.341398583984375,216.81270840855964,134.32042525483706,2024-06-05 15:22:43.332884,-0.3090629182032987,0.951041346345307,0.0006856627209984
2024-06-05 15:22:43.339747,48.19847328244275,-1.213740458015267,-0.0763358778625954,0.17238251953125,2.6982652709960937,8.365340600585936,216.812789481827,134.32055217699147,2024-06-05 15:22:43.339747,-0.3090629182032987,0.951041346345307,0.0006856627209984
2024-06-05 15:22:43.347287,48.35114503816794,-1.1297709923664123,0.1908396946564885,0.1556231079101562,2.767697119140625,8.372523205566406,216.81287055509435,134.32067909914588,2024-06-05 15:22:43.347287,-0.3090629182032987,0.951041346345307,0.0006856627209984
2024-06-05 15:22:43.354383,48.14503816793893,-1.2442748091603053,0.2824427480916031,0.1843535278320312,2.8706477905273435,8.377311608886718,216.81295162836167,134.32080602130029,2024-06-05 15:22:43.354383,-0.3090629182032987,0.951041346345307,0.0006856627209984
2024-06-05 15:22:43.361511,47.954198473282446,-1.4045801526717556,0.0687022900763358,0.1580173095703125,2.825157958984375,8.40843623046875,216.81303270162903,134.3209329434547,2024-06-05 15:22:43.361511,-0.3090629182032987,0.951041346345307,0.0006856627209984
2024-06-05 15:22:43.368393,47.786259541984734,-1.3435114503816794,0.2137404580152671,0.229843359375,2.760514514160156,8.391676818847655,216.81311377489638,134.3210598656091,2024-06-05 15:22:43.368393,-0.3090629182032987,0.951041346345307,0.0006856627209984
2024-06-05 15:22:43.375179,48.22900763358778,-1.1374045801526718,0.2519083969465648,0.2178723510742187,2.7629087158203123,8.40843623046875,216.8131948481637,134.32118678776348,2024-06-05 15:22:43.375179,-0.3090629182032987,0.951041346345307,0.0006856627209984
2024-06-05 15:22:43.383474,48.2442748091603,-1.251908396946565,0.0916030534351145,0.1651999145507812,2.6886884643554687,8.453926062011718,216.81327592143106,134.3213137099179,2024-06-05 15:22:43.383474,-0.3090629182032987,0.951041346345307,0.0006856627209984
2024-06-05 15:22:43.390392,48.38931297709924,-1.083969465648855,0.0381679389312977,0.2513911743164062,2.755726110839844,8.367734802246094,216.8133569946984,134.3214406320723,2024-06-05 15:22:43.390392,-0.3090629182032987,0.951041346345307,0.0006856627209984
2024-06-05 15:22:43.397264,48.30534351145038,-1.3893129770992367,1.9465648854961832,0.1963245361328124,2.810792749023437,8.394071020507813,216.81343806796576,134.3215675542267,2024-06-05 15:22:43.397264,-0.3090629182032987,0.951041346345307,0.0006856627209984
2024-06-05 15:22:43.404178,48.32824427480916,-1.4961832061068705,-0.2900763358778626,0.1651999145507812,2.8730419921875,8.43956085205078,216.8135191412331,134.3216944763811,2024-06-05 15:22:43.404178,-0.3090629182032987,0.951041346345307,0.0006856627209984
2024-06-05 15:22:43.411951,48.267175572519086,-1.297709923664122,-0.4274809160305343,0.2226607543945312,2.841917370605469,8.403647827148436,216.81360021450044,134.32182139853552,2024-06-05 15:22:43.411951,-0.3090629182032987,0.951041346345307,0.0006856627209984
2024-06-05 15:22:43.419282,48.18320610687023,-1.213740458015267,-0.4045801526717557,0.1867477294921875,2.913743420410156,8.379705810546875,216.8136812877678,134.32194832068993,2024-06-05 15:22:43.419282,-0.3090629182032987,0.951041346345307,0.0006856627209984
2024-06-05 15:22:43.426474,47.96946564885496,-1.4809160305343512,-0.5419847328244275,0.2753331909179687,2.887407202148437,8.453926062011718,216.81376236103512,134.3220752428443,2024-06-05 15:22:43.426474,-0.3090629182032987,0.951041346345307,0.0006856627209984
2024-06-05 15:22:43.433316,48.14503816793893,-1.267175572519084,-0.4045801526717557,0.2154781494140625,2.849099975585937,8.398859423828124,216.81384343430247,134.3222021649987,2024-06-05 15:22:43.433316,-0.3090629182032987,0.951041346345307,0.0006856627209984
2024-06-05 15:22:43.440158,48.49618320610687,-1.183206106870229,-0.5419847328244275,0.0694318481445312,2.8993782104492185,8.298302954101562,216.81392450756982,134.32232908715312,2024-06-05 15:22:43.440158,-0.3090629182032987,0.951041346345307,0.0006856627209984
2024-06-05 15:22:43.448419,47.99236641221374,-1.4732824427480915,-0.916030534351145,0.2274491577148437,3.047818713378906,8.327033374023436,216.81400558083715,134.32245600930753,2024-06-05 15:22:43.448419,-0.3090629182032987,0.951041346345307,0.0006856627209984
2024-06-05 15:22:43.455364,48.06870229007634,-1.450381679389313,-0.9847328244274808,0.2537853759765625,2.9568390502929685,8.377311608886718,216.8140866541045,134.32258293146194,2024-06-05 15:22:43.455364,-0.3090629182032987,0.951041346345307,0.0006856627209984
2024-06-05 15:22:43.462238,47.93129770992366,-1.4122137404580153,-0.9694656488549618,0.2753331909179687,2.9544448486328125,8.334215979003906,216.81416772737185,134.32270985361635,2024-06-05 15:22:43.462238,-0.3090629182032987,0.951041346345307,0.0006856627209984
2024-06-05 15:22:43.469103,47.80916030534351,-1.2900763358778626,-1.0305343511450382,0.277727392578125,3.062183923339844,8.389282617187499,216.81424880063918,134.32283677577075,2024-06-05 15:22:43.469103,-0.3090629182032987,0.951041346345307,0.0006856627209984
2024-06-05 15:22:43.475928,47.77862595419848,-1.450381679389313,-1.1221374045801529,0.2322375610351562,2.961627453613281,8.336610180664062,216.81432987390653,134.32296369792516,2024-06-05 15:22:43.475928,-0.3090629182032987,0.951041346345307,0.0006856627209984
2024-06-05 15:22:43.483135,47.87022900763359,-1.2061068702290076,-1.3129770992366412,0.2681505859374999,2.9735984619140625,8.456320263671875,216.81441094717388,134.32309062007954,2024-06-05 15:22:43.483135,-0.3090629182032987,0.951041346345307,0.0006856627209984
2024-06-05 15:22:43.490052,47.83206106870229,-1.1374045801526718,-1.5954198473282444,0.2753331909179687,2.9544448486328125,8.480262280273436,216.81449202044124,134.32321754223395,2024-06-05 15:22:43.490052,-0.3090629182032987,0.951041346345307,0.0006856627209984
2024-06-05 15:22:43.496902,47.66412213740458,-1.4885496183206106,-1.717557251908397,0.2130839477539062,2.987963671875,8.367734802246094,216.81457309370856,134.32334446438836,2024-06-05 15:22:43.496902,-0.3090629182032987,0.951041346345307,0.0006856627209984
2024-06-05 15:22:43.503763,47.48091603053435,-1.0916030534351144,-1.7709923664122138,0.21068974609375,2.896984008789062,8.360552197265624,216.8146541669759,134.32347138654276,2024-06-05 15:22:43.503763,-0.3090629182032987,0.951041346345307,0.0006856627209984
2024-06-05 15:22:43.510637,47.63358778625954,-1.3053435114503815,-1.9083969465648856,0.229843359375,2.923320227050781,8.403647827148436,216.81497611180674,134.3236028489148,2024-06-05 15:22:43.510637,-0.3090629182032987,0.951041346345307,0.0006856627209984
2024-06-05 15:22:43.517771,47.38931297709924,-1.3435114503816794,-1.923664122137405,0.2035071411132812,2.865859387207032,8.396465222167969,216.8152980566376,134.3237343112868,2024-06-05 15:22:43.517771,-0.3090629182032987,0.951041346345307,0.0006856627209984
2024-06-05 15:22:43.524667,47.58015267175573,-1.5038167938931295,-2.053435114503817,0.2346317626953125,2.85388837890625,8.463502868652343,216.81562000146843,134.32386577365884,2024-06-05 15:22:43.524667,-0.3090629182032987,0.951041346345307,0.0006856627209984
2024-06-05 15:22:43.531471,47.61832061068702,-1.4809160305343512,-2.099236641221374,0.1556231079101562,2.89219560546875,8.432378247070313,216.8159419462993,134.3239972360309,2024-06-05 15:22:43.531471,-0.3090629182032987,0.951041346345307,0.0006856627209984
2024-06-05 15:22:43.538278,47.63358778625954,-1.3893129770992367,-1.763358778625954,0.2489969726562499,2.942473840332031,8.358157995605469,216.81626389113012,134.32412869840292,2024-06-05 15:22:43.538278,-0.3090629182032987,0.951041346345307,0.0006856627209984
2024-06-05 15:22:43.545499,47.32824427480916,-1.3435114503816794,-2.045801526717557,0.2154781494140625,2.868253588867187,8.358157995605469,216.81658583596098,134.32426016077494,2024-06-05 15:22:43.545499,-0.3090629182032987,0.951041346345307,0.0006856627209984
2024-06-05 15:22:43.552777,47.44274809160305,-1.381679389312977,-2.15267175572519,0.2920926025390625,3.047818713378906,8.425195642089843,216.8169077807918,134.32439162314697,2024-06-05 15:22:43.552777,-0.3090629182032987,0.951041346345307,0.0006856627209984
2024-06-05 15:22:43.559849,47.36641221374046,-1.534351145038168,-2.213740458015267,0.1843535278320312,2.9185318237304685,8.310273962402343,216.81722972562267,134.324523085519,2024-06-05 15:22:43.559849,-0.3090629182032987,0.951041346345307,0.0006856627209984
2024-06-05 15:22:43.566699,47.37404580152672,-1.5572519083969465,-2.15267175572519,0.2513911743164062,2.825157958984375,8.283937744140625,216.8175516704535,134.32465454789101,2024-06-05 15:22:43.566699,-0.3090629182032987,0.951041346345307,0.0006856627209984
2024-06-05 15:22:43.573626,47.3587786259542,-1.3740458015267176,-0.0305343511450381,0.2274491577148437,2.8562825805664063,8.355763793945313,216.81787361528436,134.32478601026307,2024-06-05 15:22:43.573626,-0.3090629182032987,0.951041346345307,0.0006856627209984
2024-06-05 15:22:43.581077,47.66412213740458,-1.4045801526717556,-2.2900763358778624,0.2226607543945312,2.8610709838867185,8.413224633789062,216.81819556011519,134.3249174726351,2024-06-05 15:22:43.581077,-0.3090629182032987,0.951041346345307,0.0006856627209984
2024-06-05 15:22:43.588053,47.54198473282442,-1.4809160305343512,-2.16793893129771,0.21068974609375,2.786850732421875,8.415618835449218,216.81851750494604,134.32504893500712,2024-06-05 15:22:43.588053,-0.3090629182032987,0.951041346345307,0.0006856627209984
2024-06-05 15:22:43.595155,47.48091603053435,-1.3129770992366412,-2.1603053435114505,0.2609679809570312,2.8036101440429686,8.501810095214843,216.81883944977687,134.32518039737914,2024-06-05 15:22:43.595155,-0.3090629182032987,0.951041346345307,0.0006856627209984
2024-06-05 15:22:43.601979,47.42748091603053,-1.183206106870229,-2.282442748091603,0.21068974609375,2.849099975585937,8.420407238769531,216.8191613946077,134.32531185975117,2024-06-05 15:22:43.601979,-0.3090629182032987,0.951041346345307,0.0006856627209984
2024-06-05 15:22:43.608747,47.51145038167939,-1.236641221374046,-1.923664122137405,0.2250549560546874,2.877830395507812,8.43956085205078,216.81948333943856,134.3254433221232,2024-06-05 15:22:43.608747,-0.3090629182032987,0.951041346345307,0.0006856627209984
2024-06-05 15:22:43.616481,47.41984732824427,-1.297709923664122,-1.83206106870229,0.1843535278320312,2.863465185546875,8.406042028808594,216.8198052842694,134.32557478449525,2024-06-05 15:22:43.616481,-0.3090629182032987,0.951041346345307,0.0006856627209984
2024-06-05 15:22:43.623397,47.56488549618321,-1.2900763358778626,-1.801526717557252,0.1963245361328124,2.849099975585937,8.374917407226562,216.82012722910025,134.32570624686727,2024-06-05 15:22:43.623397,-0.3090629182032987,0.951041346345307,0.0006856627209984
2024-06-05 15:22:43.630534,47.38931297709924,-1.282442748091603,-1.809160305343512,0.2130839477539062,2.8036101440429686,8.360552197265624,216.82044917393108,134.3258377092393,2024-06-05 15:22:43.630534,-0.3090629182032987,0.951041346345307,0.0006856627209984
2024-06-05 15:22:43.637453,47.41984732824427,-1.3893129770992367,-1.7404580152671756,0.1915361328124999,2.8945898071289062,8.406042028808594,216.82077111876194,134.32596917161132,2024-06-05 15:22:43.637453,-0.3090629182032987,0.951041346345307,0.0006856627209984
2024-06-05 15:22:43.644808,47.62595419847328,-1.3435114503816794,-1.4351145038167938,0.2178723510742187,2.896984008789062,8.441955053710936,216.82109306359277,134.32610063398334,2024-06-05 15:22:43.644808,-0.3090629182032987,0.951041346345307,0.0006856627209984
2024-06-05 15:22:43.652239,47.6412213740458,-1.3587786259541983,-1.4198473282442747,0.229843359375,2.863465185546875,8.420407238769531,216.82141500842363,134.32623209635537,2024-06-05 15:22:43.652239,-0.3090629182032987,0.951041346345307,0.0006856627209984
2024-06-05 15:22:43.659181,47.30534351145038,-1.1526717557251909,-1.4351145038167938,0.1891419311523437,2.91134921875,8.434772448730468,216.82173695325446,134.32636355872742,2024-06-05 15:22:43.659181,-0.3090629182032987,0.951041346345307,0.0006856627209984
2024-06-05 15:22:43.666004,47.46564885496184,-1.3893129770992367,-1.5190839694656488,0.2250549560546874,2.8754361938476563,8.374917407226562,216.82205889808532,134.32649502109945,2024-06-05 15:22:43.666004,-0.3090629182032987,0.951041346345307,0.0006856627209984
2024-06-05 15:22:43.672865,47.34351145038168,-1.1221374045801529,-1.1984732824427482,0.2466027709960937,2.825157958984375,8.422801440429687,216.82238084291615,134.32662648347147,2024-06-05 15:22:43.672865,-0.3090629182032987,0.951041346345307,0.0006856627209984
2024-06-05 15:22:43.680903,47.70992366412214,-1.1221374045801529,-1.4045801526717556,0.2274491577148437,2.8993782104492185,8.513781103515624,216.822702787747,134.3267579458435,2024-06-05 15:22:43.680903,-0.3090629182032987,0.951041346345307,0.0006856627209984
2024-06-05 15:22:43.687868,47.41984732824427,-1.015267175572519,-1.4045801526717556,0.2489969726562499,2.825157958984375,8.382100012207031,216.82302473257784,134.32688940821552,2024-06-05 15:22:43.687868,-0.3090629182032987,0.951041346345307,0.0006856627209984
2024-06-05 15:22:43.694764,47.48091603053435,-1.1755725190839694,-1.4809160305343512,0.258573779296875,2.882618798828125,8.43956085205078,216.82334667740867,134.32702087058755,2024-06-05 15:22:43.694764,-0.3090629182032987,0.951041346345307,0.0006856627209984
2024-06-05 15:22:43.701667,47.36641221374046,-1.3969465648854962,-1.4885496183206106,0.1891419311523437,2.8562825805664063,8.552088330078124,216.82366862223952,134.3271523329596,2024-06-05 15:22:43.701667,-0.3090629182032987,0.951041346345307,0.0006856627209984
2024-06-05 15:22:43.708457,47.57251908396947,-1.213740458015267,-1.6106870229007633,0.2849099975585937,2.885013000488281,8.40125362548828,216.82399056707035,134.32728379533162,2024-06-05 15:22:43.708457,-0.3090629182032987,0.951041346345307,0.0006856627209984
2024-06-05 15:22:43.716713,47.38167938931298,-1.3053435114503815,-1.5801526717557253,0.1771709228515625,2.896984008789062,8.37012900390625,216.8243125119012,134.32741525770365,2024-06-05 15:22:43.716713,-0.3090629182032987,0.951041346345307,0.0006856627209984
2024-06-05 15:22:43.723613,47.74809160305343,-1.3587786259541983,-1.5877862595419847,0.2442085693359375,2.8754361938476563,8.36294639892578,216.82463445673204,134.32754672007567,2024-06-05 15:22:43.723613,-0.3090629182032987,0.951041346345307,0.0006856627209984
2024-06-05 15:22:43.730782,47.33587786259542,-1.1603053435114503,-1.717557251908397,0.296881005859375,2.885013000488281,8.396465222167969,216.8249564015629,134.3276781824477,2024-06-05 15:22:43.730782,-0.3090629182032987,0.951041346345307,0.0006856627209984
2024-06-05 15:22:43.737809,47.38931297709924,-1.236641221374046,-1.7709923664122138,0.2370259643554687,2.9041666137695312,8.396465222167969,216.82527834639373,134.32780964481972,2024-06-05 15:22:43.737809,-0.3090629182032987,0.951041346345307,0.0006856627209984
2024-06-05 15:22:43.745993,47.412213740458014,-1.236641221374046,-1.7404580152671756,0.2537853759765625,2.8993782104492185,8.415618835449218,216.8256002912246,134.32794110719178,2024-06-05 15:22:43.745993,-0.3090629182032987,0.951041346345307,0.0006856627209984
2024-06-05 15:22:43.753341,47.2442748091603,-1.236641221374046,-1.6488549618320612,0.1699883178710937,2.89219560546875,8.406042028808594,216.82592223605542,134.3280725695638,2024-06-05 15:22:43.753341,-0.3090629182032987,0.951041346345307,0.0006856627209984
2024-06-05 15:22:43.760259,47.534351145038165,-1.267175572519084,-1.6946564885496185,0.3064578125,2.7748797241210936,8.372523205566406,216.82624418088628,134.32820403193583,2024-06-05 15:22:43.760259,-0.3090629182032987,0.951041346345307,0.0006856627209984
2024-06-05 15:22:43.767340,47.47328244274809,-1.3206106870229009,-3.885496183206107,0.2178723510742187,2.81558115234375,8.528146313476562,216.8265661257171,134.32833549430785,2024-06-05 15:22:43.767340,-0.3090629182032987,0.951041346345307,0.0006856627209984
2024-06-05 15:22:43.774097,47.56488549618321,-1.3053435114503815,-1.900763358778626,0.1843535278320312,2.808398547363281,8.377311608886718,216.82688807054797,134.32846695667988,2024-06-05 15:22:43.774097,-0.3090629182032987,0.951041346345307,0.0006856627209984
2024-06-05 15:22:43.782676,47.42748091603053,-1.2595419847328244,-1.9618320610687023,0.1771709228515625,2.806004345703125,8.391676818847655,216.8272100153788,134.3285984190519,2024-06-05 15:22:43.782676,-0.3090629182032987,0.951041346345307,0.0006856627209984
2024-06-05 15:22:43.789595,47.33587786259542,-1.282442748091603,-1.786259541984733,0.201112939453125,2.887407202148437,8.348581188964843,216.82753196020963,134.32872988142395,2024-06-05 15:22:43.789595,-0.3090629182032987,0.951041346345307,0.0006856627209984
2024-06-05 15:22:43.796701,47.41984732824427,-1.2442748091603053,-1.7099236641221374,0.2442085693359375,2.7724855224609373,8.28633194580078,216.82785390504048,134.32886134379598,2024-06-05 15:22:43.796701,-0.3090629182032987,0.951041346345307,0.0006856627209984
2024-06-05 15:22:43.803680,47.31297709923664,-1.4274809160305344,-1.931297709923664,0.181959326171875,2.794033337402344,8.444349255371094,216.82817584987131,134.328992806168,2024-06-05 15:22:43.803680,-0.3090629182032987,0.951041346345307,0.0006856627209984
2024-06-05 15:22:43.811306,47.19847328244275,-1.4122137404580153,-1.877862595419848,0.1963245361328124,2.7365724975585937,8.530540515136718,216.82849779470217,134.32912426854003,2024-06-05 15:22:43.811306,-0.3090629182032987,0.951041346345307,0.0006856627209984
2024-06-05 15:22:43.818774,47.7175572519084,-1.0534351145038168,-1.5572519083969465,0.1699883178710937,2.7054478759765623,8.389282617187499,216.828819739533,134.32925573091205,2024-06-05 15:22:43.818774,-0.3090629182032987,0.951041346345307,0.0006856627209984
2024-06-05 15:22:43.825803,47.62595419847328,-1.3511450381679388,-1.450381679389313,0.1675941162109374,2.7269956909179687,8.396465222167969,216.82914168436386,134.32938719328408,2024-06-05 15:22:43.825803,-0.3090629182032987,0.951041346345307,0.0006856627209984
2024-06-05 15:22:43.832572,47.49618320610687,-1.3206106870229009,-1.7099236641221374,0.1675941162109374,2.760514514160156,8.547299926757812,216.8294636291947,134.32951865565613,2024-06-05 15:22:43.832572,-0.3090629182032987,0.951041346345307,0.0006856627209984
2024-06-05 15:22:43.839434,47.65648854961832,-1.2900763358778626,-1.6030534351145038,0.1628057128906249,2.612074011230469,8.508992700195313,216.82978557402555,134.32965011802816,2024-06-05 15:22:43.839434,-0.3090629182032987,0.951041346345307,0.0006856627209984
2024-06-05 15:22:43.847749,47.65648854961832,-1.3053435114503815,-1.4427480916030535,0.1628057128906249,2.770091320800781,8.429984045410155,216.83010751885638,134.32978158040018,2024-06-05 15:22:43.847749,-0.3090629182032987,0.951041346345307,0.0006856627209984
2024-06-05 15:22:43.854696,47.67175572519084,-1.3282442748091603,-1.4809160305343512,0.17238251953125,2.7365724975585937,8.568847741699217,216.83042946368724,134.3299130427722,2024-06-05 15:22:43.854696,-0.3090629182032987,0.951041346345307,0.0006856627209984
2024-06-05 15:22:43.861577,47.97709923664122,-1.4885496183206106,-1.267175572519084,0.1987187377929687,2.779668127441406,8.511386901855468,216.83075140851807,134.33004450514423,2024-06-05 15:22:43.861577,-0.3090629182032987,0.951041346345307,0.0006856627209984
2024-06-05 15:22:43.868607,47.93893129770992,-1.366412213740458,-1.183206106870229,0.15322890625,2.808398547363281,8.398859423828124,216.83107335334893,134.33017596751625,2024-06-05 15:22:43.868607,-0.3090629182032987,0.951041346345307,0.0006856627209984
2024-06-05 15:22:43.875399,47.90076335877863,-1.381679389312977,-1.16793893129771,0.21068974609375,2.906560815429687,8.415618835449218,216.83139529817976,134.33030742988828,2024-06-05 15:22:43.875399,-0.3090629182032987,0.951041346345307,0.0006856627209984
2024-06-05 15:22:43.882757,47.86259541984733,-1.213740458015267,-1.2061068702290076,0.239420166015625,2.753331909179688,8.394071020507813,216.8317172430106,134.33043889226033,2024-06-05 15:22:43.882757,-0.3090629182032987,0.951041346345307,0.0006856627209984
2024-06-05 15:22:43.889699,47.725190839694655,-1.3511450381679388,-1.2213740458015268,0.1795651245117187,2.829946362304687,8.353369592285155,216.83203918784145,134.33057035463236,2024-06-05 15:22:43.889699,-0.3090629182032987,0.951041346345307,0.0006856627209984
2024-06-05 15:22:43.896817,47.80916030534351,-1.251908396946565,-1.236641221374046,0.1987187377929687,2.827552160644532,8.420407238769531,216.83236113267228,134.33070181700438,2024-06-05 15:22:43.896817,-0.3090629182032987,0.951041346345307,0.0006856627209984
2024-06-05 15:22:43.903662,47.97709923664122,-1.3740458015267176,-1.068702290076336,0.2082955444335937,2.8131869506835936,8.434772448730468,216.83268307750313,134.3308332793764,2024-06-05 15:22:43.903662,-0.3090629182032987,0.951041346345307,0.0006856627209984
2024-06-05 15:22:43.910506,47.74045801526717,-1.3740458015267176,-1.2595419847328244,0.2035071411132812,2.8371289672851563,8.410830432128906,216.83300502233396,134.33096474174843,2024-06-05 15:22:43.910506,-0.3090629182032987,0.951041346345307,0.0006856627209984
2024-06-05 15:22:43.918395,48.0763358778626,-1.4274809160305344,-1.3358778625954195,0.17238251953125,2.841917370605469,8.449137658691406,216.83332696716482,134.33109620412046,2024-06-05 15:22:43.918395,-0.3090629182032987,0.951041346345307,0.0006856627209984
2024-06-05 15:22:43.925293,47.89312977099237,-1.3435114503816794,-1.4198473282442747,0.2370259643554687,2.8730419921875,8.298302954101562,216.83364891199565,134.3312276664925,2024-06-05 15:22:43.925293,-0.3090629182032987,0.951041346345307,0.0006856627209984
2024-06-05 15:22:43.932117,47.87022900763359,-1.3740458015267176,-1.267175572519084,0.2466027709960937,2.8730419921875,8.420407238769531,216.8339708568265,134.33135912886453,2024-06-05 15:22:43.932117,-0.3090629182032987,0.951041346345307,0.0006856627209984
2024-06-05 15:22:43.939036,47.83969465648855,-1.2061068702290076,-1.3969465648854962,0.316034619140625,2.85388837890625,8.56166513671875,216.83429280165734,134.33149059123656,2024-06-05 15:22:43.939036,-0.3090629182032987,0.951041346345307,0.0006856627209984
2024-06-05 15:22:43.946690,47.786259541984734,-1.1984732824427482,-1.297709923664122,0.296881005859375,2.9185318237304685,8.336610180664062,216.8346147464882,134.33162205360858,2024-06-05 15:22:43.946690,-0.3090629182032987,0.951041346345307,0.0006856627209984
2024-06-05 15:22:43.953808,47.7175572519084,-1.282442748091603,-1.3740458015267176,0.2609679809570312,2.8514941772460936,8.348581188964843,216.83493669131903,134.3317535159806,2024-06-05 15:22:43.953808,-0.3090629182032987,0.951041346345307,0.0006856627209984
2024-06-05 15:22:43.960741,47.91603053435114,-1.3358778625954195,-1.5572519083969465,0.239420166015625,2.8802245971679685,8.449137658691406,216.8352586361499,134.33188497835263,2024-06-05 15:22:43.960741,-0.3090629182032987,0.951041346345307,0.0006856627209984
2024-06-05 15:22:43.967766,47.97709923664122,-1.450381679389313,-1.5190839694656488,0.239420166015625,2.834734765625,8.365340600585936,216.83558058098072,134.3320164407247,2024-06-05 15:22:43.967766,-0.3090629182032987,0.951041346345307,0.0006856627209984
2024-06-05 15:22:43.974559,47.70992366412214,-1.3893129770992367,-1.6488549618320612,0.2370259643554687,2.85388837890625,8.350975390624999,216.83590252581155,134.3321479030967,2024-06-05 15:22:43.974559,-0.3090629182032987,0.951041346345307,0.0006856627209984
2024-06-05 15:22:43.982792,47.732824427480914,-1.3129770992366412,-1.549618320610687,0.2489969726562499,2.844311572265625,8.339004382324218,216.8362244706424,134.33227936546874,2024-06-05 15:22:43.982792,-0.3090629182032987,0.951041346345307,0.0006856627209984
2024-06-05 15:22:43.989680,47.83206106870229,-1.3587786259541983,-1.618320610687023,0.2130839477539062,2.901772412109375,8.350975390624999,216.83654641547324,134.33241082784076,2024-06-05 15:22:43.989680,-0.3090629182032987,0.951041346345307,0.0006856627209984
2024-06-05 15:22:43.996525,47.595419847328245,-1.3053435114503815,-1.6259541984732824,0.2753331909179687,3.0550013183593747,8.403647827148436,216.8368683603041,134.33254229021279,2024-06-05 15:22:43.996525,-0.3090629182032987,0.951041346345307,0.0006856627209984
2024-06-05 15:22:44.003475,47.908396946564885,-1.4122137404580153,-1.5954198473282444,0.2082955444335937,2.91134921875,8.396465222167969,216.83719030513492,134.3326737525848,2024-06-05 15:22:44.003475,-0.3090629182032987,0.951041346345307,0.0006856627209984
2024-06-05 15:22:44.010389,47.50381679389313,-1.2290076335877862,-1.5419847328244274,0.2154781494140625,2.8610709838867185,8.396465222167969,216.83751224996578,134.33280521495686,2024-06-05 15:22:44.010389,-0.3090629182032987,0.951041346345307,0.0006856627209984
2024-06-05 15:22:44.017599,47.89312977099237,-1.2595419847328244,-1.7099236641221374,0.2059013427734375,2.8802245971679685,8.415618835449218,216.8378341947966,134.3329366773289,2024-06-05 15:22:44.017599,-0.3090629182032987,0.951041346345307,0.0006856627209984
2024-06-05 15:22:44.024519,47.86259541984733,-1.450381679389313,-1.4961832061068705,0.239420166015625,2.8467057739257813,8.396465222167969,216.83815613962747,134.3330681397009,2024-06-05 15:22:44.024519,-0.3090629182032987,0.951041346345307,0.0006856627209984
2024-06-05 15:22:44.031346,47.58778625954199,-1.1068702290076335,-1.5267175572519085,0.1987187377929687,2.885013000488281,8.33182177734375,216.8384780844583,134.33319960207294,2024-06-05 15:22:44.031346,-0.3090629182032987,0.951041346345307,0.0006856627209984
2024-06-05 15:22:44.038250,47.51908396946565,-1.534351145038168,-1.6030534351145038,0.2035071411132812,2.877830395507812,8.549694128417968,216.83880002928916,134.33333106444496,2024-06-05 15:22:44.038250,-0.3090629182032987,0.951041346345307,0.0006856627209984
2024-06-05 15:22:44.047462,47.732824427480914,-1.4198473282442747,-1.5877862595419847,0.2250549560546874,2.868253588867187,8.518569506835936,216.83912197412,134.333462526817,2024-06-05 15:22:44.047462,-0.3090629182032987,0.951041346345307,0.0006856627209984
2024-06-05 15:22:44.054529,47.69465648854962,-1.4351145038167938,-1.381679389312977,0.1939303344726562,2.882618798828125,8.482656481933594,216.83944391895082,134.33359398918904,2024-06-05 15:22:44.054529,-0.3090629182032987,0.951041346345307,0.0006856627209984
2024-06-05 15:22:44.061504,47.48091603053435,-1.3129770992366412,-1.5725190839694656,0.2178723510742187,2.89219560546875,8.444349255371094,216.83976586378168,134.33372545156107,2024-06-05 15:22:44.061504,-0.3090629182032987,0.951041346345307,0.0006856627209984
2024-06-05 15:22:44.068612,47.6412213740458,-1.2213740458015268,-1.5877862595419847,0.1987187377929687,2.767697119140625,8.398859423828124,216.8400878086125,134.3338569139331,2024-06-05 15:22:44.068612,-0.3090629182032987,0.951041346345307,0.0006856627209984
2024-06-05 15:22:44.075409,47.57251908396947,-1.3206106870229009,-1.6412213740458017,0.2609679809570312,2.932897033691406,8.303091357421874,216.84040975344337,134.33398837630511,2024-06-05 15:22:44.075409,-0.3090629182032987,0.951041346345307,0.0006856627209984
2024-06-05 15:22:44.083236,47.70229007633588,-1.267175572519084,-1.5725190839694656,0.1867477294921875,2.89219560546875,8.40125362548828,216.8407316982742,134.33411983867714,2024-06-05 15:22:44.083236,-0.3090629182032987,0.951041346345307,0.0006856627209984
2024-06-05 15:22:44.090175,47.62595419847328,-1.3587786259541983,-1.549618320610687,0.2130839477539062,2.9041666137695312,8.389282617187499,216.84105364310506,134.33425130104916,2024-06-05 15:22:44.090175,-0.3090629182032987,0.951041346345307,0.0006856627209984
2024-06-05 15:22:44.097029,47.40458015267176,-1.251908396946565,-1.7404580152671756,0.258573779296875,2.8754361938476563,8.360552197265624,216.8413755879359,134.33438276342122,2024-06-05 15:22:44.097029,-0.3090629182032987,0.951041346345307,0.0006856627209984
2024-06-05 15:22:44.103892,47.58778625954199,-1.366412213740458,-1.6717557251908397,0.2920926025390625,2.8754361938476563,8.501810095214843,216.84169753276674,134.33451422579324,2024-06-05 15:22:44.103892,-0.3090629182032987,0.951041346345307,0.0006856627209984
2024-06-05 15:22:44.110756,47.48854961832061,-1.3893129770992367,-1.702290076335878,0.1843535278320312,2.85388837890625,8.353369592285155,216.84201947759757,134.33464568816527,2024-06-05 15:22:44.110756,-0.3090629182032987,0.951041346345307,0.0006856627209984
2024-06-05 15:22:44.118009,47.62595419847328,-1.2290076335877862,-1.7786259541984732,0.296881005859375,2.923320227050781,8.425195642089843,216.84234142242843,134.3347771505373,2024-06-05 15:22:44.118009,-0.3090629182032987,0.951041346345307,0.0006856627209984
2024-06-05 15:22:44.124881,47.35114503816794,-1.3053435114503815,-1.748091603053435,0.2466027709960937,2.932897033691406,8.398859423828124,216.84266336725926,134.33490861290932,2024-06-05 15:22:44.124881,-0.3090629182032987,0.951041346345307,0.0006856627209984
2024-06-05 15:22:44.131697,47.40458015267176,-1.5419847328244274,-1.763358778625954,0.2202665527343749,2.93050283203125,8.418013037109375,216.84298531209012,134.33504007528134,2024-06-05 15:22:44.131697,-0.3090629182032987,0.951041346345307,0.0006856627209984
2024-06-05 15:22:44.138551,47.51145038167939,-1.1450381679389312,-1.7786259541984732,0.2489969726562499,2.9376854370117185,8.564059338378906,216.84330725692095,134.3351715376534,2024-06-05 15:22:44.138551,-0.3090629182032987,0.951041346345307,0.0006856627209984
2024-06-05 15:22:44.145473,47.51908396946565,-1.1908396946564883,-1.7938931297709924,0.2322375610351562,2.889801403808593,8.429984045410155,216.84362920175178,134.33530300002542,2024-06-05 15:22:44.145473,-0.3090629182032987,0.951041346345307,0.0006856627209984
2024-06-05 15:22:44.152906,47.51145038167939,-1.2442748091603053,-1.7786259541984732,0.4548983154296874,2.8754361938476563,8.444349255371094,216.84395114658264,134.33543446239744,2024-06-05 15:22:44.152906,-0.3090629182032987,0.951041346345307,0.0006856627209984
2024-06-05 15:22:44.159791,47.46564885496184,-1.3206106870229009,-1.618320610687023,0.2513911743164062,2.9089550170898435,8.391676818847655,216.84427309141347,134.33556592476947,2024-06-05 15:22:44.159791,-0.3090629182032987,0.951041346345307,0.0006856627209984
2024-06-05 15:22:44.166649,47.38931297709924,-1.3511450381679388,-1.9618320610687023,0.2274491577148437,2.9089550170898435,8.32463917236328,216.84459503624433,134.3356973871415,2024-06-05 15:22:44.166649,-0.3090629182032987,0.951041346345307,0.0006856627209984
2024-06-05 15:22:44.173462,47.36641221374046,-1.1221374045801529,-3.862595419847328,0.2202665527343749,2.858676782226562,8.298302954101562,216.84491698107516,134.33582884951352,2024-06-05 15:22:44.173462,-0.3090629182032987,0.951041346345307,0.0006856627209984
2024-06-05 15:22:44.180692,47.38931297709924,-1.2290076335877862,-1.801526717557252,0.2513911743164062,2.827552160644532,8.413224633789062,216.84523892590602,134.33596031188554,2024-06-05 15:22:44.180692,-0.3090629182032987,0.951041346345307,0.0006856627209984
2024-06-05 15:22:44.187713,47.46564885496184,-1.2748091603053435,-1.763358778625954,0.2059013427734375,2.8706477905273435,8.410830432128906,216.84556087073685,134.3360917742576,2024-06-05 15:22:44.187713,-0.3090629182032987,0.951041346345307,0.0006856627209984
2024-06-05 15:22:44.194579,47.2824427480916,-1.5572519083969465,-1.7786259541984732,0.2130839477539062,2.8945898071289062,8.425195642089843,216.8458828155677,134.33622323662962,2024-06-05 15:22:44.194579,-0.3090629182032987,0.951041346345307,0.0006856627209984
2024-06-05 15:22:44.201430,47.045801526717554,-1.4351145038167938,-1.618320610687023,0.1628057128906249,2.863465185546875,8.394071020507813,216.84620476039854,134.33635469900165,2024-06-05 15:22:44.201430,-0.3090629182032987,0.951041346345307,0.0006856627209984
2024-06-05 15:22:44.208230,47.18320610687023,-1.297709923664122,-1.6488549618320612,0.1556231079101562,2.849099975585937,8.394071020507813,216.8465267052294,134.33648616137367,2024-06-05 15:22:44.208230,-0.3090629182032987,0.951041346345307,0.0006856627209984
2024-06-05 15:22:44.215493,47.27480916030535,-1.4427480916030535,-1.5190839694656488,0.181959326171875,2.8036101440429686,8.422801440429687,216.84684865006022,134.3366176237457,2024-06-05 15:22:44.215493,-0.3090629182032987,0.951041346345307,0.0006856627209984
2024-06-05 15:22:44.222408,47.50381679389313,-1.4274809160305344,-1.3893129770992367,0.1580173095703125,2.789244934082031,8.353369592285155,216.84717059489108,134.33674908611772,2024-06-05 15:22:44.222408,-0.3090629182032987,0.951041346345307,0.0006856627209984
2024-06-05 15:22:44.229280,47.3206106870229,-1.3511450381679388,-1.2900763358778626,0.2154781494140625,2.7054478759765623,8.480262280273436,216.8474925397219,134.33688054848977,2024-06-05 15:22:44.229280,-0.3090629182032987,0.951041346345307,0.0006856627209984
2024-06-05 15:22:44.236142,47.70229007633588,-1.1297709923664123,-1.2900763358778626,0.2202665527343749,2.7629087158203123,8.453926062011718,216.84781448455274,134.3370120108618,2024-06-05 15:22:44.236142,-0.3090629182032987,0.951041346345307,0.0006856627209984
2024-06-05 15:22:44.243026,47.55725190839695,-1.267175572519084,-1.4122137404580153,0.1747767211914062,2.779668127441406,8.43956085205078,216.8481364293836,134.33714347323382,2024-06-05 15:22:44.243026,-0.3090629182032987,0.951041346345307,0.0006856627209984
2024-06-05 15:22:44.250288,47.55725190839695,-1.282442748091603,-1.4732824427480915,0.1963245361328124,2.810792749023437,8.470685473632813,216.84845837421443,134.33727493560585,2024-06-05 15:22:44.250288,-0.3090629182032987,0.951041346345307,0.0006856627209984
2024-06-05 15:22:44.257211,47.57251908396947,-1.4045801526717556,-1.618320610687023,0.2082955444335937,2.715024682617188,8.432378247070313,216.8487803190453,134.33740639797787,2024-06-05 15:22:44.257211,-0.3090629182032987,0.951041346345307,0.0006856627209984
2024-06-05 15:22:44.264056,47.74045801526717,-1.1755725190839694,-1.3587786259541983,0.2082955444335937,2.6886884643554687,8.398859423828124,216.84910226387612,134.3375378603499,2024-06-05 15:22:44.264056,-0.3090629182032987,0.951041346345307,0.0006856627209984
2024-06-05 15:22:44.270923,47.61068702290076,-1.4274809160305344,-1.4885496183206106,0.1963245361328124,2.7581203125,8.44674345703125,216.84942420870698,134.33766932272195,2024-06-05 15:22:44.270923,-0.3090629182032987,0.951041346345307,0.0006856627209984
2024-06-05 15:22:44.277790,47.80916030534351,-1.2900763358778626,-1.267175572519084,0.17238251953125,2.789244934082031,8.415618835449218,216.8497461535378,134.33780078509398,2024-06-05 15:22:44.277790,-0.3090629182032987,0.951041346345307,0.0006856627209984
2024-06-05 15:22:44.284986,47.64885496183206,-1.267175572519084,-1.4198473282442747,0.2609679809570312,2.7653029174804686,8.40125362548828,216.85006809836867,134.337932247466,2024-06-05 15:22:44.284986,-0.3090629182032987,0.951041346345307,0.0006856627209984
2024-06-05 15:22:44.291862,47.52671755725191,-1.3893129770992367,-1.4885496183206106,0.1675941162109374,2.801215942382812,8.389282617187499,216.8503900431995,134.33806370983802,2024-06-05 15:22:44.291862,-0.3090629182032987,0.951041346345307,0.0006856627209984
2024-06-05 15:22:44.298680,47.65648854961832,-1.4580152671755726,-1.3206106870229009,0.28730419921875,2.7581203125,8.413224633789062,216.85071198803035,134.33819517221005,2024-06-05 15:22:44.298680,-0.3090629182032987,0.951041346345307,0.0006856627209984
2024-06-05 15:22:44.305534,47.74809160305343,-1.5419847328244274,-1.549618320610687,0.2442085693359375,2.7916391357421872,8.475473876953124,216.85103393286118,134.33832663458207,2024-06-05 15:22:44.305534,-0.3090629182032987,0.951041346345307,0.0006856627209984
2024-06-05 15:22:44.314054,47.954198473282446,-1.5572519083969465,-1.16793893129771,0.2537853759765625,2.779668127441406,8.482656481933594,216.85135587769204,134.33845809695413,2024-06-05 15:22:44.314054,-0.3090629182032987,0.951041346345307,0.0006856627209984
2024-06-05 15:22:44.321060,47.87022900763359,-1.2290076335877862,-1.3282442748091603,0.4429273071289062,2.806004345703125,8.281543542480469,216.85167782252287,134.33858955932615,2024-06-05 15:22:44.321060,-0.3090629182032987,0.951041346345307,0.0006856627209984
2024-06-05 15:22:44.328197,47.89312977099237,-1.3893129770992367,-1.5648854961832062,0.2657563842773437,2.798821740722656,8.406042028808594,216.8519997673537,134.33872102169818,2024-06-05 15:22:44.328197,-0.3090629182032987,0.951041346345307,0.0006856627209984
2024-06-05 15:22:44.335183,47.91603053435114,-1.213740458015267,-1.3511450381679388,0.2729389892578124,2.8610709838867185,8.432378247070313,216.85232171218456,134.3388524840702,2024-06-05 15:22:44.335183,-0.3090629182032987,0.951041346345307,0.0006856627209984
2024-06-05 15:22:44.341973,48.0,-1.2748091603053435,-1.3435114503816794,0.430956298828125,2.8610709838867185,8.384494213867187,216.8526436570154,134.33898394644223,2024-06-05 15:22:44.341973,-0.3090629182032987,0.951041346345307,0.0006856627209984
2024-06-05 15:22:44.350251,47.7175572519084,-1.1068702290076335,-1.4045801526717556,0.2849099975585937,2.9185318237304685,8.415618835449218,216.85296560184625,134.33911540881425,2024-06-05 15:22:44.350251,-0.3090629182032987,0.951041346345307,0.0006856627209984
2024-06-05 15:22:44.357179,47.88549618320611,-1.3129770992366412,-1.366412213740458,0.2466027709960937,2.849099975585937,8.391676818847655,216.85328754667708,134.3392468711863,2024-06-05 15:22:44.357179,-0.3090629182032987,0.951041346345307,0.0006856627209984
2024-06-05 15:22:44.364228,47.79389312977099,-1.236641221374046,-1.5725190839694656,0.296881005859375,2.8993782104492185,8.492233288574218,216.85360949150794,134.33937833355833,2024-06-05 15:22:44.364228,-0.3090629182032987,0.951041346345307,0.0006856627209984
2024-06-05 15:22:44.371151,47.93893129770992,-1.366412213740458,-1.5114503816793894,0.2154781494140625,2.8227637573242186,8.413224633789062,216.85393143633877,134.33950979593035,2024-06-05 15:22:44.371151,-0.3090629182032987,0.951041346345307,0.0006856627209984
2024-06-05 15:22:44.378440,47.91603053435114,-1.3358778625954195,-1.4351145038167938,0.2130839477539062,2.8993782104492185,8.461108666992187,216.85425338116963,134.33964125830238,2024-06-05 15:22:44.378440,-0.3090629182032987,0.951041346345307,0.0006856627209984
2024-06-05 15:22:44.385710,47.96183206106871,-1.3358778625954195,-1.5038167938931295,0.1891419311523437,2.887407202148437,8.329427575683594,216.85457532600046,134.3397727206744,2024-06-05 15:22:44.385710,-0.3090629182032987,0.951041346345307,0.0006856627209984
2024-06-05 15:22:44.392747,47.908396946564885,-1.2213740458015268,-1.732824427480916,0.2466027709960937,3.057395520019531,8.341398583984375,216.85489727083132,134.33990418304643,2024-06-05 15:22:44.392747,-0.3090629182032987,0.951041346345307,0.0006856627209984
2024-06-05 15:22:44.399692,48.06870229007634,-1.4427480916030535,-1.4732824427480915,0.1867477294921875,2.8802245971679685,8.372523205566406,216.85521921566215,134.34003564541848,2024-06-05 15:22:44.399692,-0.3090629182032987,0.951041346345307,0.0006856627209984
2024-06-05 15:22:44.406514,47.7557251908397,-1.3969465648854962,-1.6793893129770991,0.1556231079101562,2.8467057739257813,8.480262280273436,216.855541160493,134.3401671077905,2024-06-05 15:22:44.406514,-0.3090629182032987,0.951041346345307,0.0006856627209984
2024-06-05 15:22:44.414377,47.81679389312977,-1.4274809160305344,-1.83206106870229,0.2274491577148437,2.9041666137695312,8.410830432128906,216.85586310532383,134.34029857016253,2024-06-05 15:22:44.414377,-0.3090629182032987,0.951041346345307,0.0006856627209984
2024-06-05 15:22:44.421317,47.786259541984734,-1.5419847328244274,-1.9083969465648856,0.181959326171875,2.89219560546875,8.482656481933594,216.85618505015466,134.34043003253456,2024-06-05 15:22:44.421317,-0.3090629182032987,0.951041346345307,0.0006856627209984
2024-06-05 15:22:44.428194,47.770992366412216,-1.3129770992366412,-1.7557251908396947,0.2154781494140625,2.9448680419921875,8.329427575683594,216.85650699498552,134.34056149490658,2024-06-05 15:22:44.428194,-0.3090629182032987,0.951041346345307,0.0006856627209984
2024-06-05 15:22:44.435054,47.595419847328245,-1.618320610687023,-1.870229007633588,0.2992752075195312,2.8371289672851563,8.425195642089843,216.85682893981635,134.3406929572786,2024-06-05 15:22:44.435054,-0.3090629182032987,0.951041346345307,0.0006856627209984
2024-06-05 15:22:44.441864,47.6412213740458,-1.4351145038167938,-3.862595419847328,0.1939303344726562,2.8754361938476563,8.441955053710936,216.8571508846472,134.34082441965066,2024-06-05 15:22:44.441864,-0.3090629182032987,0.951041346345307,0.0006856627209984
2024-06-05 15:22:44.449082,47.68702290076336,-1.2213740458015268,-3.908396946564885,0.181959326171875,2.8610709838867185,8.379705810546875,216.85747282947804,134.34095588202268,2024-06-05 15:22:44.449082,-0.3090629182032987,0.951041346345307,0.0006856627209984
2024-06-05 15:22:44.456023,47.61832061068702,-1.5038167938931295,-3.8931297709923673,0.2082955444335937,2.8227637573242186,8.341398583984375,216.8577947743089,134.3410873443947,2024-06-05 15:22:44.456023,-0.3090629182032987,0.951041346345307,0.0006856627209984
2024-06-05 15:22:44.462882,47.63358778625954,-1.3053435114503815,-1.6717557251908397,0.0,2.863465185546875,8.329427575683594,216.85811671913973,134.34121880676673,2024-06-05 15:22:44.462882,-0.3090629182032987,0.951041346345307,0.0006856627209984
2024-06-05 15:22:44.469767,47.57251908396947,-1.5038167938931295,-1.7099236641221374,0.1795651245117187,2.889801403808593,8.372523205566406,216.8584386639706,134.34135026913876,2024-06-05 15:22:44.469767,-0.3090629182032987,0.951041346345307,0.0006856627209984
2024-06-05 15:22:44.476627,47.6793893129771,-1.3282442748091603,-1.4961832061068705,0.21068974609375,2.8754361938476563,8.396465222167969,216.85876060880142,134.34148173151078,2024-06-05 15:22:44.476627,-0.3090629182032987,0.951041346345307,0.0006856627209984
2024-06-05 15:22:44.483892,47.51145038167939,-1.1374045801526718,-1.5114503816793894,0.2130839477539062,2.8945898071289062,8.379705810546875,216.85908255363228,134.34161319388284,2024-06-05 15:22:44.483892,-0.3090629182032987,0.951041346345307,0.0006856627209984
2024-06-05 15:22:44.490803,47.458015267175576,-1.236641221374046,-1.4198473282442747,0.2537853759765625,3.0454245117187497,8.389282617187499,216.8594044984631,134.34174465625486,2024-06-05 15:22:44.490803,-0.3090629182032987,0.951041346345307,0.0006856627209984
2024-06-05 15:22:44.497649,47.51145038167939,-1.3587786259541983,-1.4198473282442747,0.2561795776367187,2.882618798828125,8.360552197265624,216.85972644329397,134.34187611862689,2024-06-05 15:22:44.497649,-0.3090629182032987,0.951041346345307,0.0006856627209984
2024-06-05 15:22:44.504494,47.412213740458014,-1.3282442748091603,-1.2442748091603053,0.2705447875976562,2.8993782104492185,8.394071020507813,216.8600483881248,134.3420075809989,2024-06-05 15:22:44.504494,-0.3090629182032987,0.951041346345307,0.0006856627209984
2024-06-05 15:22:44.511356,47.52671755725191,-1.2213740458015268,-1.1526717557251909,0.2681505859374999,2.9376854370117185,8.453926062011718,216.86037028466603,134.342533272759,2024-06-05 15:22:44.511356,-0.3090629182032987,0.951041346345307,0.0006856627209984
2024-06-05 15:22:44.518576,47.80152671755725,-1.16793893129771,-1.1984732824427482,0.2705447875976562,2.825157958984375,8.379705810546875,216.86069218120727,134.3430589645191,2024-06-05 15:22:44.518576,-0.3090629182032987,0.951041346345307,0.0006856627209984
2024-06-05 15:22:44.525451,47.6793893129771,-1.3435114503816794,-1.1526717557251909,0.2178723510742187,2.916137622070312,8.425195642089843,216.8610140777485,134.34358465627918,2024-06-05 15:22:44.525451,-0.3090629182032987,0.951041346345307,0.0006856627209984
2024-06-05 15:22:44.532284,47.7557251908397,-1.0305343511450382,-1.1297709923664123,0.28730419921875,2.93050283203125,8.415618835449218,216.86133597428974,134.34411034803924,2024-06-05 15:22:44.532284,-0.3090629182032987,0.951041346345307,0.0006856627209984
2024-06-05 15:22:44.539120,47.2824427480916,-1.2290076335877862,-1.2442748091603053,0.2178723510742187,2.942473840332031,8.358157995605469,216.86165787083098,134.34463603979933,2024-06-05 15:22:44.539120,-0.3090629182032987,0.951041346345307,0.0006856627209984
2024-06-05 15:22:44.546437,47.58778625954199,-1.1908396946564883,-1.236641221374046,0.2082955444335937,3.057395520019531,8.473079675292968,216.86197976737222,134.34516173155941,2024-06-05 15:22:44.546437,-0.3090629182032987,0.951041346345307,0.0006856627209984
2024-06-05 15:22:44.553616,47.40458015267176,-1.083969465648855,-1.465648854961832,0.2753331909179687,2.877830395507812,8.480262280273436,216.86230166391346,134.3456874233195,2024-06-05 15:22:44.553616,-0.3090629182032987,0.951041346345307,0.0006856627209984
2024-06-05 15:22:44.560511,47.6793893129771,-1.183206106870229,-1.4580152671755726,0.2681505859374999,2.8467057739257813,8.418013037109375,216.8626235604547,134.3462131150796,2024-06-05 15:22:44.560511,-0.3090629182032987,0.951041346345307,0.0006856627209984
2024-06-05 15:22:44.567366,47.3206106870229,-1.4732824427480915,-1.381679389312977,0.2370259643554687,2.832340563964844,8.384494213867187,216.86294545699593,134.34673880683968,2024-06-05 15:22:44.567366,-0.3090629182032987,0.951041346345307,0.0006856627209984
2024-06-05 15:22:44.574164,47.44274809160305,-1.3129770992366412,-1.5877862595419847,0.2346317626953125,2.806004345703125,8.463502868652343,216.86326735353717,134.34726449859977,2024-06-05 15:22:44.574164,-0.3090629182032987,0.951041346345307,0.0006856627209984
2024-06-05 15:22:44.581378,47.54198473282442,-1.236641221374046,-1.5114503816793894,0.2178723510742187,2.801215942382812,8.346186987304687,216.8635892500784,134.34779019035983,2024-06-05 15:22:44.581378,-0.3090629182032987,0.951041346345307,0.0006856627209984
2024-06-05 15:22:44.588300,47.25954198473283,-1.1603053435114503,-1.7099236641221374,0.1963245361328124,2.808398547363281,8.312668164062499,216.8639111466196,134.34831588211992,2024-06-05 15:22:44.588300,-0.3090629182032987,0.951041346345307,0.0006856627209984
2024-06-05 15:22:44.595176,47.11450381679389,-1.282442748091603,-1.6870229007633588,0.1795651245117187,2.808398547363281,8.37012900390625,216.86423304316085,134.34884157388,2024-06-05 15:22:44.595176,-0.3090629182032987,0.951041346345307,0.0006856627209984
2024-06-05 15:22:44.602027,47.34351145038168,-1.1908396946564883,-1.702290076335878,0.2896984008789062,2.844311572265625,8.40843623046875,216.8645549397021,134.3493672656401,2024-06-05 15:22:44.602027,-0.3090629182032987,0.951041346345307,0.0006856627209984
2024-06-05 15:22:44.608821,47.37404580152672,-1.1984732824427482,-1.870229007633588,0.239420166015625,2.810792749023437,8.365340600585936,216.86487683624333,134.3498929574002,2024-06-05 15:22:44.608821,-0.3090629182032987,0.951041346345307,0.0006856627209984
2024-06-05 15:22:44.616034,47.458015267175576,-1.267175572519084,-1.83206106870229,0.1580173095703125,2.825157958984375,8.341398583984375,216.86519873278456,134.35041864916028,2024-06-05 15:22:44.616034,-0.3090629182032987,0.951041346345307,0.0006856627209984
2024-06-05 15:22:44.622983,47.40458015267176,-1.251908396946565,-2.015267175572519,0.2322375610351562,2.7964275390625,8.40843623046875,216.8655206293258,134.35094434092036,2024-06-05 15:22:44.622983,-0.3090629182032987,0.951041346345307,0.0006856627209984
2024-06-05 15:22:44.629880,47.43511450381679,-1.4198473282442747,-1.9083969465648856,0.2178723510742187,2.834734765625,8.415618835449218,216.86584252586704,134.35147003268042,2024-06-05 15:22:44.629880,-0.3090629182032987,0.951041346345307,0.0006856627209984
2024-06-05 15:22:44.636740,47.49618320610687,-1.3206106870229009,-1.8244274809160304,0.201112939453125,2.8036101440429686,8.456320263671875,216.86616442240827,134.3519957244405,2024-06-05 15:22:44.636740,-0.3090629182032987,0.951041346345307,0.0006856627209984
2024-06-05 15:22:44.644824,47.42748091603053,-1.3511450381679388,-1.7786259541984732,0.1580173095703125,2.8036101440429686,8.465897070312499,216.8664863189495,134.3525214162006,2024-06-05 15:22:44.644824,-0.3090629182032987,0.951041346345307,0.0006856627209984
2024-06-05 15:22:44.652287,47.62595419847328,-1.1526717557251909,-1.801526717557252,0.2226607543945312,2.817975354003906,8.303091357421874,216.86680821549075,134.3530471079607,2024-06-05 15:22:44.652287,-0.3090629182032987,0.951041346345307,0.0006856627209984
2024-06-05 15:22:44.659466,47.55725190839695,-1.3282442748091603,-1.7938931297709924,0.2274491577148437,2.77727392578125,8.444349255371094,216.867130112032,134.35357279972078,2024-06-05 15:22:44.659466,-0.3090629182032987,0.951041346345307,0.0006856627209984
2024-06-05 15:22:44.666297,47.66412213740458,-1.381679389312977,-1.7557251908396947,0.201112939453125,2.715024682617188,8.44674345703125,216.86745200857322,134.35409849148087,2024-06-05 15:22:44.666297,-0.3090629182032987,0.951041346345307,0.0006856627209984
2024-06-05 15:22:44.673133,47.76335877862596,-1.3511450381679388,-1.534351145038168,0.1699883178710937,2.767697119140625,8.374917407226562,216.86777390511446,134.35462418324096,2024-06-05 15:22:44.673133,-0.3090629182032987,0.951041346345307,0.0006856627209984
2024-06-05 15:22:44.681374,47.52671755725191,-1.5114503816793894,-1.6793893129770991,0.1795651245117187,2.779668127441406,8.372523205566406,216.8680958016557,134.35514987500102,2024-06-05 15:22:44.681374,-0.3090629182032987,0.951041346345307,0.0006856627209984
2024-06-05 15:22:44.688336,47.52671755725191,-1.3053435114503815,-1.5954198473282444,0.0454898315429687,2.789244934082031,8.367734802246094,216.86841769819694,134.3556755667611,2024-06-05 15:22:44.688336,-0.3090629182032987,0.951041346345307,0.0006856627209984
2024-06-05 15:22:44.695224,47.458015267175576,-1.2213740458015268,-1.465648854961832,0.1987187377929687,2.779668127441406,8.341398583984375,216.86873959473817,134.3562012585212,2024-06-05 15:22:44.695224,-0.3090629182032987,0.951041346345307,0.0006856627209984
