timestamp,temp,accel_x,accel_y,accel_z,gyro_x,gyro_y,gyro_z
2024-06-05T15:22:41.443142,19.071176470588238,0.21068974609375,2.729389892578125,8.451531860351562,48.02290076335878,-1.4732824427480915,-1.5114503816793894
2024-06-05T15:22:41.450472,18.97705882352941,0.19393033447265623,2.8012159423828122,8.453926062011718,47.9236641221374,-1.5038167938931297,-1.4351145038167938
2024-06-05T15:22:41.457621,19.071176470588238,0.24181436767578124,2.655169641113281,8.537723120117187,48.02290076335878,-1.2290076335877862,-1.3969465648854962
2024-06-05T15:22:41.464728,19.11823529411765,0.2154781494140625,2.829946362304687,8.29351455078125,48.091603053435115,-1.5419847328244274,-1.5572519083969465
2024-06-05T15:22:41.472047,18.97705882352941,0.19632453613281248,2.844311572265625,8.418013037109375,48.229007633587784,-1.5801526717557253,-1.5419847328244274
2024-06-05T15:22:41.479194,18.97705882352941,0.06464344482421874,2.7940333374023436,8.386888415527343,47.847328244274806,-1.2290076335877862,-1.4961832061068703
2024-06-05T15:22:41.486535,19.024117647058823,0.201112939453125,2.8850130004882812,8.339004382324218,48.083969465648856,-1.3282442748091603,-1.5648854961832062
2024-06-05T15:22:41.493577,18.97705882352941,0.28490999755859375,2.8706477905273435,8.449137658691406,47.93893129770992,-1.2442748091603053,-1.5801526717557253
2024-06-05T15:22:41.500552,19.071176470588238,0.19871873779296872,2.8275521606445313,8.279149340820313,47.88549618320611,-1.366412213740458,-1.5954198473282444
2024-06-05T15:22:41.507781,18.93,0.24181436767578124,2.839523168945312,8.37012900390625,48.12213740458015,-1.4427480916030535,-1.5877862595419847
2024-06-05T15:22:41.514892,19.024117647058823,0.2346317626953125,2.817975354003906,8.432378247070313,47.93129770992366,-1.3053435114503817,-1.5801526717557253
2024-06-05T15:22:41.521843,19.024117647058823,0.24899697265624998,2.8012159423828122,8.418013037109375,47.89312977099237,-1.2900763358778626,-1.5419847328244274
2024-06-05T15:22:41.528806,19.024117647058823,0.22744915771484372,2.91134921875,8.465897070312499,48.030534351145036,-1.4885496183206106,-1.549618320610687
2024-06-05T15:22:41.535762,19.024117647058823,0.2346317626953125,2.8754361938476563,8.365340600585936,47.86259541984733,-1.5954198473282444,-1.4885496183206106
2024-06-05T15:22:41.542773,18.97705882352941,0.16519991455078123,2.8945898071289062,8.40843623046875,47.954198473282446,-1.4045801526717556,-1.6259541984732824
2024-06-05T15:22:41.549708,19.071176470588238,0.21787235107421873,2.9089550170898435,8.32463917236328,47.93893129770992,-1.3893129770992367,-1.6106870229007633
2024-06-05T15:22:41.556649,18.97705882352941,0.21068974609375,2.8802245971679685,8.415618835449218,47.82442748091603,-1.2595419847328244,-1.6946564885496183
2024-06-05T15:22:41.563605,18.97705882352941,0.26336218261718747,2.8706477905273435,8.470685473632813,48.0,-1.4732824427480915,-1.6106870229007633
2024-06-05T15:22:41.570800,19.071176470588238,0.24899697265624998,2.877830395507812,8.40125362548828,47.969465648854964,-1.381679389312977,-1.4580152671755726
2024-06-05T15:22:41.577835,18.97705882352941,0.22505495605468748,2.9185318237304685,8.391676818847655,47.61068702290076,-1.3129770992366412,-1.6488549618320612
2024-06-05T15:22:41.584779,19.071176470588238,0.20829554443359374,2.925714428710937,8.425195642089843,47.900763358778626,-1.3358778625954197,-1.549618320610687
2024-06-05T15:22:41.591755,19.024117647058823,0.21068974609375,2.7581203125,8.420407238769531,47.56488549618321,-1.450381679389313,-1.4885496183206106
2024-06-05T15:22:41.598738,19.024117647058823,0.2609679809570312,2.7964275390625,8.573636145019531,47.603053435114504,-1.282442748091603,-1.4961832061068703
2024-06-05T15:22:41.605709,19.024117647058823,0.28969840087890625,2.8730419921875,8.346186987304687,47.79389312977099,-1.2290076335877862,-1.549618320610687
2024-06-05T15:22:41.612682,19.024117647058823,0.277727392578125,2.961627453613281,8.394071020507813,47.57251908396947,-1.282442748091603,-1.5190839694656488
2024-06-05T15:22:41.619605,19.024117647058823,0.2657563842773437,2.789244934082031,8.384494213867187,47.587786259541986,-1.3129770992366412,-1.549618320610687
2024-06-05T15:22:41.626579,19.024117647058823,0.2920926025390625,2.959233251953125,8.525752111816406,47.61832061068702,-1.1145038167938932,-1.6259541984732824
2024-06-05T15:22:41.633570,19.024117647058823,0.23702596435546874,2.932897033691406,8.427589843749999,47.603053435114504,-1.3893129770992367,-1.3893129770992367
2024-06-05T15:22:41.640486,19.024117647058823,0.19153613281249998,2.9664158569335934,8.434772448730468,47.61832061068702,-1.3053435114503817,-1.5801526717557253
2024-06-05T15:22:41.647603,19.11823529411765,0.2609679809570312,2.959233251953125,8.360552197265624,47.52671755725191,-1.3511450381679388,-1.6870229007633588
2024-06-05T15:22:41.654754,19.071176470588238,0.239420166015625,2.9089550170898435,8.461108666992187,47.63358778625954,-1.3587786259541985,-1.5954198473282444
2024-06-05T15:22:41.661843,19.024117647058823,0.21308394775390624,2.9568390502929685,8.365340600585936,47.6412213740458,-1.1221374045801527,-1.4961832061068703
2024-06-05T15:22:41.668710,18.97705882352941,0.22505495605468748,2.935291235351562,8.425195642089843,47.404580152671755,-1.1221374045801527,-1.6641221374045803
2024-06-05T15:22:41.675628,18.97705882352941,0.2753331909179687,2.9831752685546875,8.396465222167969,47.25190839694657,-1.3893129770992367,-1.534351145038168
2024-06-05T15:22:41.682562,19.11823529411765,0.258573779296875,2.8275521606445313,8.350975390624999,47.35114503816794,-1.282442748091603,-1.618320610687023
2024-06-05T15:22:41.689479,19.024117647058823,0.2059013427734375,2.9041666137695312,8.367734802246094,47.343511450381676,-1.1603053435114503,-1.6564885496183206
2024-06-05T15:22:41.696389,19.024117647058823,0.3016694091796875,2.868253588867187,8.350975390624999,47.51145038167939,-1.2366412213740459,-1.6793893129770991
2024-06-05T15:22:41.703322,19.024117647058823,0.2442085693359375,2.9185318237304685,8.396465222167969,47.25954198473283,-1.183206106870229,-1.5648854961832062
2024-06-05T15:22:41.710246,19.024117647058823,0.24899697265624998,2.8323405639648436,8.37012900390625,47.3587786259542,-1.0534351145038168,-1.7328244274809161
2024-06-05T15:22:41.717185,19.024117647058823,0.19632453613281248,2.882618798828125,8.336610180664062,47.16793893129771,-1.2366412213740459,-1.5801526717557253
2024-06-05T15:22:41.724119,19.11823529411765,0.15562310791015624,2.8658593872070313,8.391676818847655,47.2442748091603,-1.3893129770992367,-1.8549618320610688
2024-06-05T15:22:41.731065,18.97705882352941,0.22505495605468748,2.849099975585937,8.374917407226562,47.12213740458015,-1.3358778625954197,-1.4961832061068703
2024-06-05T15:22:41.738004,18.97705882352941,0.19871873779296872,2.7964275390625,8.391676818847655,47.35114503816794,-1.2671755725190839,-1.618320610687023
2024-06-05T15:22:41.744995,19.024117647058823,0.19871873779296872,2.877830395507812,8.427589843749999,46.99236641221374,-1.16793893129771,-1.6030534351145038
2024-06-05T15:22:41.751934,19.024117647058823,0.2705447875976562,2.85388837890625,8.398859423828124,47.50381679389313,-1.3740458015267176,-1.5114503816793894
2024-06-05T15:22:41.758932,19.024117647058823,0.2753331909179687,2.8012159423828122,8.279149340820313,47.152671755725194,-1.2748091603053435,-1.6106870229007633
2024-06-05T15:22:41.765920,19.024117647058823,0.22744915771484372,2.789244934082031,8.468291271972657,47.396946564885496,-1.366412213740458,-1.5725190839694656
2024-06-05T15:22:41.772916,19.024117647058823,0.20350714111328125,2.779668127441406,8.374917407226562,47.37404580152672,-1.3969465648854962,-1.618320610687023
2024-06-05T15:22:41.779900,18.97705882352941,0.181959326171875,2.8371289672851563,8.391676818847655,47.36641221374046,-1.366412213740458,-1.5725190839694656
2024-06-05T15:22:41.786860,18.97705882352941,0.22026655273437498,2.7533319091796873,8.379705810546875,47.404580152671755,-1.3587786259541985,-1.6412213740458015
2024-06-05T15:22:41.793815,18.97705882352941,0.24660277099609373,2.839523168945312,8.360552197265624,47.541984732824424,-1.2748091603053435,-1.5648854961832062
2024-06-05T15:22:41.800739,18.97705882352941,0.2154781494140625,2.789244934082031,8.350975390624999,47.274809160305345,-1.3053435114503817,-1.5801526717557253
2024-06-05T15:22:41.807745,19.071176470588238,0.16998831787109375,2.8131869506835936,8.437166650390624,47.44274809160305,-1.2442748091603053,-1.549618320610687
2024-06-05T15:22:41.814676,19.071176470588238,0.2154781494140625,2.7461493041992187,8.341398583984375,47.38167938931298,-1.2061068702290076,-1.5877862595419847
2024-06-05T15:22:41.821632,18.97705882352941,0.16280571289062498,2.750937707519531,8.334215979003906,47.43511450381679,-1.5725190839694656,-1.6946564885496183
2024-06-05T15:22:41.828616,18.97705882352941,0.18435352783203124,2.779668127441406,8.398859423828124,47.48091603053435,-1.3511450381679388,-1.5114503816793894
2024-06-05T15:22:41.835529,19.071176470588238,0.22505495605468748,2.7844565307617186,8.537723120117187,47.47328244274809,-1.1297709923664123,-1.5190839694656488
2024-06-05T15:22:41.842419,18.93,0.1867477294921875,2.7844565307617186,8.310273962402343,47.33587786259542,-1.2748091603053435,-1.5190839694656488
2024-06-05T15:22:41.849348,19.11823529411765,0.16998831787109375,2.7581203125,8.441955053710936,47.48854961832061,-1.4351145038167938,-1.4961832061068703
2024-06-05T15:22:41.856294,19.024117647058823,0.21068974609375,2.7916391357421872,8.420407238769531,47.56488549618321,-1.5572519083969465,-1.5954198473282444
2024-06-05T15:22:41.863241,19.024117647058823,0.18435352783203124,2.8227637573242186,8.441955053710936,47.63358778625954,-1.4198473282442747,-1.4351145038167938
2024-06-05T15:22:41.870150,18.93,0.19632453613281248,2.7964275390625,8.463502868652343,47.656488549618324,-1.2290076335877862,-1.3893129770992367
2024-06-05T15:22:41.877095,18.93,0.20350714111328125,2.7269956909179687,8.47786807861328,47.51145038167939,-1.4122137404580153,-1.4580152671755726
2024-06-05T15:22:41.884333,19.024117647058823,0.2059013427734375,2.7629087158203123,8.525752111816406,47.41984732824427,-1.5114503816793894,-1.6488549618320612
2024-06-05T15:22:41.891360,18.97705882352941,0.18435352783203124,2.729389892578125,8.418013037109375,47.54961832061068,-1.4045801526717556,-1.6717557251908397
2024-06-05T15:22:41.898322,18.97705882352941,0.21787235107421873,2.612074011230469,8.425195642089843,47.74809160305343,-1.3969465648854962,-1.5572519083969465
2024-06-05T15:22:41.905312,19.071176470588238,0.20829554443359374,2.7844565307617186,8.511386901855468,47.81679389312977,-1.2595419847328244,-1.633587786259542
2024-06-05T15:22:41.912316,19.024117647058823,0.2059013427734375,2.8945898071289062,8.444349255371094,47.70229007633588,-1.2595419847328244,-1.6564885496183206
2024-06-05T15:22:41.919381,19.071176470588238,0.19153613281249998,2.7198130859375,8.374917407226562,47.770992366412216,-1.366412213740458,-1.4961832061068703
2024-06-05T15:22:41.926314,18.97705882352941,0.19871873779296872,2.779668127441406,8.276755139160155,47.778625954198475,-1.2290076335877862,-1.748091603053435
2024-06-05T15:22:41.933449,19.024117647058823,0.19871873779296872,2.6288334228515624,8.520963708496094,47.847328244274806,-1.3511450381679388,-1.7633587786259541
2024-06-05T15:22:41.940590,19.024117647058823,0.18914193115234373,2.817975354003906,8.432378247070313,47.961832061068705,-1.3129770992366412,-1.6488549618320612
2024-06-05T15:22:41.947548,19.024117647058823,0.19871873779296872,2.741360900878906,8.348581188964843,47.83206106870229,-1.2366412213740459,-1.5648854961832062
2024-06-05T15:22:41.954494,19.024117647058823,0.20829554443359374,2.767697119140625,8.449137658691406,47.80152671755725,-1.465648854961832,-1.5954198473282444
2024-06-05T15:22:41.961444,19.024117647058823,0.22744915771484372,2.779668127441406,8.461108666992187,47.954198473282446,-1.381679389312977,-1.6870229007633588
2024-06-05T15:22:41.968474,19.024117647058823,0.24181436767578124,2.806004345703125,8.384494213867187,47.969465648854964,-1.465648854961832,-1.702290076335878
2024-06-05T15:22:41.975610,18.97705882352941,0.16280571289062498,2.7964275390625,8.367734802246094,48.02290076335878,-1.366412213740458,-1.6870229007633588
2024-06-05T15:22:41.982695,18.97705882352941,0.22026655273437498,2.7724855224609373,8.382100012207031,47.969465648854964,-1.5648854961832062,-1.702290076335878
2024-06-05T15:22:41.989631,18.97705882352941,0.18435352783203124,2.81558115234375,8.377311608886718,48.16030534351145,-1.4961832061068703,-1.786259541984733
2024-06-05T15:22:41.996539,18.97705882352941,0.22505495605468748,2.858676782226562,8.327033374023436,47.99236641221374,-1.2366412213740459,-1.6030534351145038
2024-06-05T15:22:42.003501,19.071176470588238,0.258573779296875,2.8323405639648436,8.422801440429687,48.404580152671755,-1.4961832061068703,-1.4809160305343512
2024-06-05T15:22:42.010411,18.97705882352941,0.22505495605468748,2.896984008789062,8.360552197265624,48.16030534351145,-1.4885496183206106,-1.366412213740458
2024-06-05T15:22:42.017346,18.97705882352941,0.229843359375,2.9544448486328125,8.410830432128906,47.9236641221374,-1.3053435114503817,-1.4732824427480915
2024-06-05T15:22:42.024248,19.024117647058823,0.201112939453125,2.8706477905273435,8.341398583984375,47.969465648854964,-1.3893129770992367,-1.3740458015267176
2024-06-05T15:22:42.031141,19.024117647058823,0.2609679809570312,2.9664158569335934,8.37012900390625,47.908396946564885,-1.450381679389313,-1.3740458015267176
2024-06-05T15:22:42.038113,19.024117647058823,0.23702596435546874,2.978386865234375,8.281543542480469,47.88549618320611,-1.381679389312977,-1.3969465648854962
2024-06-05T15:22:42.045219,19.024117647058823,0.2561795776367187,3.201047619628906,8.501810095214843,47.82442748091603,-1.366412213740458,-1.366412213740458
2024-06-05T15:22:42.052266,18.93,0.239420166015625,3.0358477050781247,8.32463917236328,47.89312977099237,-1.2442748091603053,-1.2671755725190839
2024-06-05T15:22:42.059227,19.024117647058823,0.30885201416015623,3.0358477050781247,8.360552197265624,47.81679389312977,-1.4198473282442747,-1.0916030534351144
2024-06-05T15:22:42.066171,18.93,0.36391865234375,2.9568390502929685,8.382100012207031,47.587786259541986,-1.16793893129771,-1.3053435114503817
2024-06-05T15:22:42.073120,19.024117647058823,0.17956512451171874,2.9951462768554684,8.29351455078125,47.37404580152672,-1.2748091603053435,-1.2748091603053435
2024-06-05T15:22:42.080070,19.024117647058823,0.055066638183593745,2.935291235351562,8.315062365722655,47.37404580152672,-1.534351145038168,-1.2900763358778626
2024-06-05T15:22:42.086998,19.024117647058823,0.22505495605468748,2.8945898071289062,8.398859423828124,47.64885496183206,-1.297709923664122,-1.5725190839694656
2024-06-05T15:22:42.093953,19.11823529411765,0.22505495605468748,3.028665100097656,8.432378247070313,47.51145038167939,-1.5190839694656488,-1.8244274809160306
2024-06-05T15:22:42.100901,18.93,0.24660277099609373,2.7246014892578123,8.468291271972657,47.48091603053435,-1.4580152671755726,-1.9465648854961832
2024-06-05T15:22:42.107826,19.024117647058823,0.373495458984375,2.906560815429687,8.583212951660157,47.534351145038165,-1.3740458015267176,-2.351145038167939
2024-06-05T15:22:42.114806,19.11823529411765,0.35194764404296874,2.7748797241210936,8.489839086914062,47.47328244274809,-1.1603053435114503,-2.6717557251908395
2024-06-05T15:22:42.121774,19.024117647058823,0.258573779296875,2.8107927490234372,8.377311608886718,47.63358778625954,-1.2900763358778626,-2.931297709923664
2024-06-05T15:22:42.128696,19.024117647058823,0.1149216796875,2.877830395507812,8.398859423828124,47.50381679389313,-1.4274809160305344,-3.1374045801526718
2024-06-05T15:22:42.135625,19.024117647058823,0.1005564697265625,2.7844565307617186,8.391676818847655,47.47328244274809,-1.6870229007633588,-3.381679389312977
2024-06-05T15:22:42.142593,19.024117647058823,0.28012159423828126,2.8012159423828122,8.432378247070313,47.13740458015267,-1.7709923664122138,-3.236641221374046
2024-06-05T15:22:42.149719,19.024117647058823,0.28730419921875,2.748543505859375,8.497021691894531,47.00763358778626,-1.786259541984733,-2.969465648854962
2024-06-05T15:22:42.156772,19.071176470588238,0.39264907226562495,2.7581203125,8.288726147460936,47.19083969465649,-1.5038167938931297,-2.954198473282443
2024-06-05T15:22:42.163955,18.93,0.3399766357421875,2.73896669921875,8.429984045410155,47.70229007633588,-1.297709923664122,-2.7099236641221376
2024-06-05T15:22:42.171119,19.024117647058823,0.354341845703125,2.8012159423828122,8.456320263671875,47.786259541984734,-1.2442748091603053,-2.2061068702290076
2024-06-05T15:22:42.178001,19.071176470588238,0.28730419921875,2.868253588867187,8.506598498535157,48.06106870229008,-1.1450381679389312,-3.9083969465648853
2024-06-05T15:22:42.185122,18.97705882352941,0.13407529296874998,3.0047230834960934,8.348581188964843,47.93893129770992,-1.1526717557251909,-1.5954198473282444
2024-06-05T15:22:42.192048,19.024117647058823,0.016759411621093748,3.0837317382812497,8.2743609375,47.595419847328245,-1.2290076335877862,-1.183206106870229
2024-06-05T15:22:42.199003,19.071176470588238,0.12689268798828124,3.0406361083984375,8.2360537109375,47.465648854961835,-1.183206106870229,-1.0
2024-06-05T15:22:42.205967,18.97705882352941,-0.00718260498046875,3.0142998901367184,8.343792785644531,47.541984732824424,-1.5190839694656488,-0.9083969465648855
2024-06-05T15:22:42.213141,19.071176470588238,0.0430956298828125,3.057395520019531,8.425195642089843,47.55725190839695,-1.5267175572519085,-0.5572519083969466
2024-06-05T15:22:42.220576,19.024117647058823,0.13646949462890623,2.8107927490234372,8.449137658691406,47.595419847328245,-1.4961832061068703,-0.5877862595419847
2024-06-05T15:22:42.227490,19.024117647058823,0.2561795776367187,2.73896669921875,8.475473876953124,47.87786259541985,-1.2290076335877862,-0.7480916030534351
2024-06-05T15:22:42.234365,19.071176470588238,0.3064578125,2.7269956909179687,8.449137658691406,47.916030534351144,-1.0687022900763359,-0.8625954198473282
2024-06-05T15:22:42.241292,19.071176470588238,0.2609679809570312,2.710236279296875,8.429984045410155,47.7557251908397,-1.1603053435114503,-1.2748091603053435
2024-06-05T15:22:42.248312,19.024117647058823,0.29927520751953124,2.712630480957031,8.456320263671875,47.61832061068702,-1.0305343511450382,-1.6946564885496183
2024-06-05T15:22:42.255375,19.024117647058823,0.19153613281249998,2.729389892578125,8.281543542480469,47.63358778625954,-1.534351145038168,-0.0916030534351145
2024-06-05T15:22:42.262249,19.024117647058823,0.17238251953125,2.7844565307617186,8.434772448730468,47.57251908396947,-1.6030534351145038,-2.236641221374046
2024-06-05T15:22:42.269103,18.97705882352941,0.34715924072265625,2.806004345703125,8.384494213867187,47.86259541984733,-1.3587786259541985,-2.3587786259541983
2024-06-05T15:22:42.275866,19.024117647058823,0.229843359375,2.920926025390625,8.379705810546875,47.82442748091603,-1.3511450381679388,-1.9389312977099236
2024-06-05T15:22:42.282608,19.024117647058823,0.2705447875976562,3.0358477050781247,8.40843623046875,47.33587786259542,-1.3969465648854962,-1.8244274809160306
2024-06-05T15:22:42.289351,19.024117647058823,0.21068974609375,2.9855694702148434,8.374917407226562,47.541984732824424,-1.3969465648854962,-1.618320610687023
2024-06-05T15:22:42.296125,18.97705882352941,0.33518823242187495,2.9927520751953125,8.350975390624999,47.37404580152672,-1.1908396946564885,-1.5725190839694656
2024-06-05T15:22:42.303080,18.97705882352941,0.38786066894531246,2.9831752685546875,8.470685473632813,47.47328244274809,-1.1984732824427482,-1.0534351145038168
2024-06-05T15:22:42.309952,19.024117647058823,0.3591302490234375,2.9544448486328125,8.384494213867187,47.52671755725191,-1.1450381679389312,-0.6793893129770993
2024-06-05T15:22:42.316728,18.97705882352941,0.3184288208007812,2.9568390502929685,8.394071020507813,47.93893129770992,-1.1450381679389312,-0.366412213740458
2024-06-05T15:22:42.323500,18.97705882352941,0.30885201416015623,3.0166940917968748,8.374917407226562,47.717557251908396,-1.0687022900763359,-0.3969465648854962
2024-06-05T15:22:42.330263,19.024117647058823,0.16759411621093748,3.0406361083984375,8.492233288574218,47.81679389312977,-1.099236641221374,-0.5725190839694656
2024-06-05T15:22:42.337012,19.11823529411765,0.316034619140625,2.999934680175781,8.382100012207031,47.595419847328245,-1.282442748091603,-0.7709923664122137
2024-06-05T15:22:42.343790,19.16529411764706,0.2442085693359375,2.978386865234375,8.418013037109375,47.23664122137404,-1.1526717557251909,-0.7709923664122137
2024-06-05T15:22:42.350537,19.071176470588238,0.22505495605468748,2.8945898071289062,8.532934716796875,47.19083969465649,-1.282442748091603,-0.6870229007633588
2024-06-05T15:22:42.357321,19.11823529411765,0.3112462158203125,2.806004345703125,8.434772448730468,47.152671755725194,-1.0916030534351144,-1.0610687022900764
2024-06-05T15:22:42.364079,19.024117647058823,0.2442085693359375,2.8371289672851563,8.413224633789062,47.11450381679389,-1.213740458015267,-1.3358778625954197
2024-06-05T15:22:42.370879,18.97705882352941,0.26336218261718747,2.779668127441406,8.44674345703125,47.396946564885496,-1.1068702290076335,-1.5954198473282444
2024-06-05T15:22:42.377978,18.93,0.201112939453125,2.6384102294921874,8.453926062011718,47.404580152671755,-1.3053435114503817,-1.8931297709923665
2024-06-05T15:22:42.384784,19.071176470588238,0.1771709228515625,2.750937707519531,8.372523205566406,47.282442748091604,-1.2290076335877862,-2.0381679389312977
2024-06-05T15:22:42.391556,19.11823529411765,0.20350714111328125,2.7940333374023436,8.339004382324218,47.274809160305345,-1.0229007633587786,-2.1374045801526718
2024-06-05T15:22:42.398320,19.024117647058823,0.1292868896484375,2.849099975585937,8.346186987304687,46.900763358778626,-1.1450381679389312,-2.3206106870229006
2024-06-05T15:22:42.405553,19.071176470588238,0.08858546142578125,2.8610709838867185,8.449137658691406,47.10687022900763,-1.3282442748091603,-2.2061068702290076
2024-06-05T15:22:42.412969,19.024117647058823,0.1580173095703125,2.8036101440429686,8.530540515136718,47.23664122137404,-1.251908396946565,-2.1068702290076335
2024-06-05T15:22:42.419811,18.97705882352941,0.11013327636718749,2.8036101440429686,8.418013037109375,47.31297709923664,-1.297709923664122,-1.786259541984733
2024-06-05T15:22:42.426598,19.024117647058823,0.15083470458984374,2.786850732421875,8.427589843749999,47.17557251908397,-1.282442748091603,-1.5572519083969465
2024-06-05T15:22:42.433820,19.071176470588238,0.12449848632812499,2.825157958984375,8.360552197265624,47.16793893129771,-1.2213740458015268,-1.4885496183206106
2024-06-05T15:22:42.440733,19.024117647058823,0.16519991455078123,2.6096798095703124,8.360552197265624,47.404580152671755,-1.1374045801526718,-1.5725190839694656
2024-06-05T15:22:42.447728,19.11823529411765,0.22266075439453123,2.7078420776367187,8.312668164062499,47.70229007633588,-1.3740458015267176,-1.5267175572519085
2024-06-05T15:22:42.454522,18.97705882352941,0.17238251953125,2.8467057739257813,8.556876733398436,47.595419847328245,-1.2671755725190839,-1.6106870229007633
2024-06-05T15:22:42.461393,19.11823529411765,0.19393033447265623,2.6623522460937497,8.513781103515624,47.603053435114504,-1.4427480916030535,-1.450381679389313
2024-06-05T15:22:42.468456,18.97705882352941,0.21308394775390624,2.683900061035156,8.29351455078125,47.43511450381679,-1.366412213740458,-1.465648854961832
2024-06-05T15:22:42.475261,19.024117647058823,0.229843359375,2.6815058593749996,8.573636145019531,47.70229007633588,-1.2366412213740459,-1.6870229007633588
2024-06-05T15:22:42.482454,19.024117647058823,0.229843359375,2.7150246826171873,8.566453540039062,47.74809160305343,-1.4732824427480915,-1.7633587786259541
2024-06-05T15:22:42.489517,19.071176470588238,0.239420166015625,2.73896669921875,8.566453540039062,47.57251908396947,-1.1908396946564885,-1.6259541984732824
2024-06-05T15:22:42.496312,18.93,0.22266075439453123,2.858676782226562,8.348581188964843,47.54961832061068,-1.3511450381679388,-1.4809160305343512
2024-06-05T15:22:42.503156,19.071176470588238,0.16041151123046873,2.7174188842773437,8.497021691894531,47.81679389312977,-1.4351145038167938,-1.6412213740458015
2024-06-05T15:22:42.510090,19.071176470588238,0.41419688720703124,2.607285607910156,8.432378247070313,47.93129770992366,-1.2442748091603053,-1.3053435114503817
2024-06-05T15:22:42.517025,19.024117647058823,0.2346317626953125,2.8275521606445313,8.418013037109375,47.89312977099237,-1.2061068702290076,-1.3511450381679388
2024-06-05T15:22:42.523836,19.071176470588238,0.19632453613281248,2.81558115234375,8.394071020507813,47.80916030534351,-1.3358778625954197,-1.2442748091603053
2024-06-05T15:22:42.531013,18.97705882352941,0.296881005859375,2.839523168945312,8.571241943359375,47.76335877862596,-1.3587786259541985,-1.1221374045801527
2024-06-05T15:22:42.537868,19.024117647058823,0.26815058593749996,2.8754361938476563,8.36294639892578,48.00763358778626,-1.465648854961832,-0.9465648854961832
2024-06-05T15:22:42.544727,19.024117647058823,0.21787235107421873,2.9089550170898435,8.350975390624999,48.00763358778626,-1.3587786259541985,-0.6641221374045801
2024-06-05T15:22:42.551558,19.071176470588238,0.229843359375,3.0238766967773434,8.37012900390625,48.06106870229008,-1.2595419847328244,-0.816793893129771
2024-06-05T15:22:42.558549,18.97705882352941,0.23702596435546874,2.877830395507812,8.365340600585936,47.69465648854962,-1.4122137404580153,-0.8854961832061069
2024-06-05T15:22:42.565317,18.97705882352941,0.201112939453125,2.8898014038085935,8.434772448730468,48.083969465648856,-1.251908396946565,-0.9465648854961832
2024-06-05T15:22:42.572152,19.024117647058823,0.28012159423828126,2.8754361938476563,8.36294639892578,47.88549618320611,-1.381679389312977,-1.2442748091603053
2024-06-05T15:22:42.579181,18.97705882352941,0.181959326171875,2.887407202148437,8.470685473632813,47.79389312977099,-1.2061068702290076,-1.2671755725190839
2024-06-05T15:22:42.585994,19.024117647058823,0.17238251953125,2.89219560546875,8.40125362548828,47.70229007633588,-1.4045801526717556,-1.549618320610687
2024-06-05T15:22:42.592765,19.024117647058823,0.1580173095703125,2.8850130004882812,8.410830432128906,47.61832061068702,-1.3893129770992367,-1.748091603053435
2024-06-05T15:22:42.599608,19.024117647058823,0.2346317626953125,2.9281086303710935,8.568847741699217,47.82442748091603,-1.6106870229007633,-1.8778625954198473
2024-06-05T15:22:42.606464,19.071176470588238,0.25139117431640623,2.940079638671875,8.336610180664062,47.49618320610687,-1.4732824427480915,-1.916030534351145
2024-06-05T15:22:42.614452,19.024117647058823,0.21787235107421873,2.9640216552734375,8.281543542480469,47.786259541984734,-1.1450381679389312,-0.030534351145038167
2024-06-05T15:22:42.621570,19.071176470588238,0.26336218261718747,2.952050646972656,8.391676818847655,47.49618320610687,-1.3206106870229009,-2.0
2024-06-05T15:22:42.628486,19.024117647058823,0.2346317626953125,3.0334535034179684,8.540117321777343,47.20610687022901,-1.3893129770992367,-1.702290076335878
2024-06-05T15:22:42.635540,18.97705882352941,0.2609679809570312,2.9472622436523435,8.288726147460936,47.43511450381679,-1.183206106870229,-1.534351145038168
2024-06-05T15:22:42.642433,19.024117647058823,0.2537853759765625,2.987963671875,8.437166650390624,47.282442748091604,-1.1984732824427482,-1.5267175572519085
2024-06-05T15:22:42.650285,18.97705882352941,0.20350714111328125,3.0023288818359375,8.374917407226562,47.43511450381679,-1.3358778625954197,-1.282442748091603
2024-06-05T15:22:42.657411,19.071176470588238,0.2346317626953125,2.93050283203125,8.303091357421874,47.58015267175573,-1.1297709923664123,-1.3435114503816794
2024-06-05T15:22:42.664588,18.97705882352941,0.25139117431640623,2.9185318237304685,8.463502868652343,47.44274809160305,-1.2290076335877862,-1.0229007633587786
2024-06-05T15:22:42.671595,19.024117647058823,0.239420166015625,2.9735984619140625,8.403647827148436,47.36641221374046,-1.1450381679389312,-1.1526717557251909
2024-06-05T15:22:42.679530,19.024117647058823,0.22505495605468748,2.896984008789062,8.420407238769531,47.25954198473283,-1.4045801526717556,-1.1526717557251909
2024-06-05T15:22:42.686712,19.024117647058823,0.21308394775390624,2.9089550170898435,8.360552197265624,47.50381679389313,-1.465648854961832,-1.3358778625954197
2024-06-05T15:22:42.693655,18.97705882352941,0.23223756103515625,2.9640216552734375,8.303091357421874,47.045801526717554,-1.534351145038168,-1.5877862595419847
2024-06-05T15:22:42.700845,18.97705882352941,0.36152445068359373,2.868253588867187,8.449137658691406,47.282442748091604,-1.2213740458015268,-1.7251908396946565
2024-06-05T15:22:42.707797,18.97705882352941,0.34715924072265625,2.906560815429687,8.475473876953124,47.47328244274809,-1.3435114503816794,-1.5877862595419847
2024-06-05T15:22:42.716266,19.024117647058823,0.17956512451171874,2.85388837890625,8.425195642089843,47.23664122137404,-1.5648854961832062,-1.8396946564885497
2024-06-05T15:22:42.723277,19.024117647058823,0.2920926025390625,2.8323405639648436,8.40843623046875,47.267175572519086,-1.083969465648855,-2.213740458015267
2024-06-05T15:22:42.730168,19.071176470588238,0.26336218261718747,2.7581203125,8.339004382324218,47.48854961832061,-1.1297709923664123,-2.427480916030534
2024-06-05T15:22:42.737187,19.024117647058823,0.09576806640624999,2.7078420776367187,8.355763793945313,47.465648854961835,-1.4580152671755726,-2.045801526717557
2024-06-05T15:22:42.744463,18.97705882352941,0.0,2.7246014892578123,8.40125362548828,47.412213740458014,-1.3053435114503817,-2.1374045801526718
2024-06-05T15:22:42.751865,19.024117647058823,0.15562310791015624,2.722207287597656,8.410830432128906,47.25190839694657,-1.183206106870229,-2.0381679389312977
2024-06-05T15:22:42.758809,19.024117647058823,0.1867477294921875,2.559401574707031,8.499415893554687,47.74809160305343,-1.3893129770992367,-1.8015267175572518
2024-06-05T15:22:42.765725,19.024117647058823,0.2154781494140625,2.5953145996093747,8.468291271972657,48.083969465648856,-1.16793893129771,-1.4732824427480915
2024-06-05T15:22:42.772636,19.11823529411765,0.1197100830078125,2.6288334228515624,8.44674345703125,47.88549618320611,-1.4122137404580153,-1.5190839694656488
2024-06-05T15:22:42.779709,18.93,0.06464344482421874,2.6048914062499997,8.36294639892578,47.93893129770992,-1.3435114503816794,-1.3053435114503817
2024-06-05T15:22:42.787035,18.93,0.28490999755859375,2.7174188842773437,8.55448253173828,48.20610687022901,-1.2442748091603053,-1.5190839694656488
2024-06-05T15:22:42.793959,18.97705882352941,0.16280571289062498,2.5857377929687497,8.432378247070313,48.36641221374046,-1.4274809160305344,-1.099236641221374
2024-06-05T15:22:42.800889,19.071176470588238,0.05985504150390625,2.501940734863281,8.453926062011718,48.16793893129771,-1.381679389312977,-0.7938931297709924
2024-06-05T15:22:42.807795,18.97705882352941,0.09816226806640624,2.5234885498046875,8.566453540039062,48.36641221374046,-1.4732824427480915,-0.5343511450381679
2024-06-05T15:22:42.815406,19.024117647058823,0.14604630126953125,2.6312276245117188,8.377311608886718,48.55725190839695,-1.3893129770992367,-0.5190839694656488
2024-06-05T15:22:42.822332,19.024117647058823,0.22744915771484372,2.7341782958984373,8.497021691894531,48.717557251908396,-1.2213740458015268,-0.3816793893129771
2024-06-05T15:22:42.829261,19.024117647058823,0.22266075439453123,2.789244934082031,8.552088330078124,48.70992366412214,-1.2748091603053435,-0.19083969465648856
2024-06-05T15:22:42.836325,19.11823529411765,0.16280571289062498,2.7820623291015623,8.406042028808594,48.58015267175573,-1.3358778625954197,0.03816793893129771
2024-06-05T15:22:42.843565,19.071176470588238,0.258573779296875,2.89219560546875,8.406042028808594,48.603053435114504,-1.4580152671755726,0.32061068702290074
2024-06-05T15:22:42.851545,18.97705882352941,0.2705447875976562,2.9281086303710935,8.374917407226562,48.74045801526717,-1.3511450381679388,0.46564885496183206
2024-06-05T15:22:42.858475,19.071176470588238,0.30885201416015623,3.071760729980469,7.953537915039062,49.06106870229008,-1.3740458015267176,0.7557251908396947
2024-06-05T15:22:42.865337,19.024117647058823,0.26336218261718747,2.849099975585937,8.32463917236328,50.80152671755725,-1.4580152671755726,0.7786259541984732
2024-06-05T15:22:42.872704,18.93,0.24660277099609373,3.1268273681640624,8.544905725097657,48.64885496183206,-1.2900763358778626,1.1221374045801527
2024-06-05T15:22:42.880086,19.024117647058823,0.3902548706054687,2.978386865234375,8.346186987304687,48.98473282442748,-1.3206106870229009,1.4198473282442747
2024-06-05T15:22:42.887357,19.024117647058823,0.181959326171875,2.923320227050781,8.307879760742187,48.83969465648855,-1.2900763358778626,1.5267175572519085
2024-06-05T15:22:42.894264,18.97705882352941,0.38307226562499996,2.9759926635742184,8.386888415527343,48.48091603053435,-1.2442748091603053,1.3740458015267176
2024-06-05T15:22:42.901301,19.024117647058823,0.16759411621093748,2.920926025390625,8.394071020507813,48.85496183206107,-1.2595419847328244,1.465648854961832
2024-06-05T15:22:42.908111,19.071176470588238,0.25139117431640623,2.9041666137695312,8.367734802246094,48.51145038167939,-1.1908396946564885,1.8396946564885497
2024-06-05T15:22:42.915757,18.93,0.25139117431640623,2.8898014038085935,8.358157995605469,48.80916030534351,-1.4732824427480915,1.6106870229007633
2024-06-05T15:22:42.922692,19.11823529411765,0.2920926025390625,3.0071172851562498,8.372523205566406,48.274809160305345,-1.1755725190839694,1.465648854961832
2024-06-05T15:22:42.929883,19.024117647058823,0.1580173095703125,2.9041666137695312,8.374917407226562,48.76335877862596,-1.1603053435114503,1.4122137404580153
2024-06-05T15:22:42.937199,19.071176470588238,0.32561142578124996,3.0358477050781247,8.382100012207031,48.55725190839695,-1.0229007633587786,1.465648854961832
2024-06-05T15:22:42.944477,19.024117647058823,0.239420166015625,2.961627453613281,8.420407238769531,48.58015267175573,-1.1984732824427482,1.4045801526717556
2024-06-05T15:22:42.951834,19.071176470588238,0.27293898925781246,2.9496564453125,8.410830432128906,48.57251908396947,-1.297709923664122,1.4580152671755726
2024-06-05T15:22:42.958933,19.024117647058823,0.22505495605468748,2.916137622070312,8.415618835449218,48.29770992366412,-1.3053435114503817,1.2061068702290076
2024-06-05T15:22:42.965727,18.97705882352941,0.1867477294921875,2.940079638671875,8.353369592285155,48.50381679389313,-1.1526717557251909,1.2061068702290076
2024-06-05T15:22:42.972526,19.024117647058823,0.16759411621093748,3.0358477050781247,8.339004382324218,48.045801526717554,-1.3358778625954197,1.1374045801526718
2024-06-05T15:22:42.979534,19.024117647058823,0.20829554443359374,2.9041666137695312,8.422801440429687,47.98473282442748,-0.9083969465648855,0.9389312977099237
2024-06-05T15:22:42.986802,19.071176470588238,0.27293898925781246,2.91134921875,8.489839086914062,48.091603053435115,-1.251908396946565,0.9312977099236641
2024-06-05T15:22:42.993755,18.97705882352941,0.19632453613281248,2.935291235351562,8.501810095214843,48.17557251908397,-1.3435114503816794,0.5725190839694656
2024-06-05T15:22:43.000862,19.024117647058823,0.2609679809570312,2.868253588867187,8.2743609375,48.229007633587784,-1.2366412213740459,0.45038167938931295
2024-06-05T15:22:43.007679,18.97705882352941,0.23223756103515625,2.8610709838867185,8.429984045410155,47.93893129770992,-1.1374045801526718,0.22137404580152673
2024-06-05T15:22:43.016120,18.97705882352941,0.2561795776367187,2.8945898071289062,8.391676818847655,47.97709923664122,-1.1526717557251909,0.030534351145038167
2024-06-05T15:22:43.023163,19.024117647058823,0.277727392578125,2.91134921875,8.415618835449218,47.74045801526717,-1.1068702290076335,-0.3053435114503817
2024-06-05T15:22:43.030134,19.11823529411765,0.277727392578125,2.9376854370117185,8.499415893554687,47.7557251908397,-1.183206106870229,-0.5648854961832062
2024-06-05T15:22:43.037156,19.024117647058823,0.229843359375,2.8945898071289062,8.520963708496094,47.7557251908397,-1.0381679389312977,-0.9618320610687023
2024-06-05T15:22:43.044257,19.024117647058823,0.15322890625,2.89219560546875,8.544905725097657,47.56488549618321,-0.9847328244274809,-1.2366412213740459
2024-06-05T15:22:43.051991,19.024117647058823,0.3136404174804687,2.916137622070312,8.449137658691406,47.57251908396947,-1.282442748091603,-1.5572519083969465
2024-06-05T15:22:43.058980,19.024117647058823,0.18435352783203124,2.6048914062499997,9.02135185546875,47.229007633587784,-1.2442748091603053,-2.0839694656488548
2024-06-05T15:22:43.065860,19.024117647058823,0.06703764648437499,3.134009973144531,8.444349255371094,46.717557251908396,-1.702290076335878,-2.3053435114503817
2024-06-05T15:22:43.073002,19.071176470588238,0.38786066894531246,2.9376854370117185,8.374917407226562,46.900763358778626,-1.3053435114503817,-2.7099236641221376
2024-06-05T15:22:43.080388,19.024117647058823,0.26815058593749996,3.2345664428710936,8.13310303955078,46.81679389312977,-1.7251908396946565,-2.885496183206107
2024-06-05T15:22:43.087590,19.024117647058823,0.3447650390625,3.2321722412109373,8.245630517578125,46.6412213740458,-1.4580152671755726,-3.33587786259542
2024-06-05T15:22:43.094721,19.024117647058823,0.5602431884765625,2.834734765625,8.456320263671875,47.2442748091603,-0.8778625954198473,-3.549618320610687
2024-06-05T15:22:43.101656,18.93,0.277727392578125,3.0454245117187497,8.322244970703125,47.465648854961835,-1.4809160305343512,-3.427480916030534
2024-06-05T15:22:43.108444,19.024117647058823,0.06943184814453125,3.2561142578125,8.341398583984375,46.68702290076336,-3.885496183206107,-4.106870229007634
2024-06-05T15:22:43.116263,19.024117647058823,0.45010991210937495,3.0502129150390624,8.298302954101562,46.49618320610687,-1.2061068702290076,-4.7251908396946565
2024-06-05T15:22:43.123189,19.024117647058823,0.47884033203125,3.0789433349609374,8.379705810546875,46.19083969465649,-1.1145038167938932,-4.778625954198473
2024-06-05T15:22:43.130197,19.024117647058823,0.09337386474609374,3.0502129150390624,8.281543542480469,45.9236641221374,-1.702290076335878,-4.595419847328245
2024-06-05T15:22:43.137461,18.93,0.258573779296875,2.7198130859375,8.425195642089843,46.3587786259542,-1.3206106870229009,-5.099236641221374
2024-06-05T15:22:43.145238,19.071176470588238,0.22266075439453123,2.89219560546875,8.312668164062499,46.23664122137404,-1.5801526717557253,-5.801526717557252
2024-06-05T15:22:43.152573,19.024117647058823,0.15083470458984374,2.906560815429687,8.394071020507813,46.44274809160305,-1.8091603053435115,-5.7251908396946565
2024-06-05T15:22:43.159525,19.024117647058823,0.26815058593749996,2.896984008789062,8.372523205566406,46.458015267175576,-1.4045801526717556,-5.564885496183206
2024-06-05T15:22:43.166348,19.071176470588238,0.2657563842773437,2.8107927490234372,8.348581188964843,46.12213740458015,-1.6412213740458015,-5.984732824427481
2024-06-05T15:22:43.173440,19.024117647058823,0.16280571289062498,2.868253588867187,8.44674345703125,45.76335877862596,-1.717557251908397,-6.1603053435114505
2024-06-05T15:22:43.181787,19.11823529411765,0.3950432739257812,2.7629087158203123,8.453926062011718,46.19847328244275,-1.2213740458015268,-6.106870229007634
2024-06-05T15:22:43.188701,19.024117647058823,0.15562310791015624,2.9927520751953125,8.398859423828124,46.3587786259542,-1.465648854961832,-5.702290076335878
2024-06-05T15:22:43.195882,19.071176470588238,0.143652099609375,2.8107927490234372,8.377311608886718,46.14503816793893,-1.3435114503816794,-5.648854961832061
2024-06-05T15:22:43.202911,19.024117647058823,0.2753331909179687,2.770091320800781,8.374917407226562,46.17557251908397,-1.2748091603053435,-5.305343511450381
2024-06-05T15:22:43.209805,19.024117647058823,0.13168109130859373,2.916137622070312,8.173804467773436,46.30534351145038,-1.7557251908396947,-4.908396946564886
2024-06-05T15:22:43.217086,19.11823529411765,0.016759411621093748,2.8467057739257813,8.221688500976562,46.541984732824424,-1.549618320610687,-4.7251908396946565
2024-06-05T15:22:43.224029,19.024117647058823,0.21787235107421873,2.6958710693359373,8.279149340820313,46.49618320610687,-1.1603053435114503,-4.8320610687022905
2024-06-05T15:22:43.230998,19.071176470588238,0.18435352783203124,2.786850732421875,8.396465222167969,46.030534351145036,-1.4961832061068703,-4.351145038167939
2024-06-05T15:22:43.237920,19.024117647058823,0.2561795776367187,2.6671406494140624,8.518569506835936,46.63358778625954,-1.4961832061068703,-3.7938931297709924
2024-06-05T15:22:43.245603,18.97705882352941,0.22744915771484372,2.7054478759765623,8.463502868652343,48.69465648854962,-1.3206106870229009,-3.5877862595419847
2024-06-05T15:22:43.253637,19.071176470588238,0.181959326171875,2.7557261108398436,8.48505068359375,46.732824427480914,-1.3282442748091603,-3.5267175572519083
2024-06-05T15:22:43.260589,19.071176470588238,0.24181436767578124,2.655169641113281,8.451531860351562,44.961832061068705,-1.465648854961832,-3.351145038167939
2024-06-05T15:22:43.267468,18.93,0.19153613281249998,2.6001030029296874,8.418013037109375,47.0,-1.3435114503816794,-3.1297709923664123
2024-06-05T15:22:43.274224,19.024117647058823,0.1197100830078125,2.5761609863281247,8.396465222167969,47.083969465648856,-1.3511450381679388,-2.50381679389313
2024-06-05T15:22:43.282738,19.024117647058823,0.2705447875976562,2.559401574707031,8.358157995605469,47.3587786259542,-1.2290076335877862,-2.3969465648854964
2024-06-05T15:22:43.289687,19.024117647058823,0.19153613281249998,2.6767174560546874,8.458714465332031,47.595419847328245,-1.4580152671755726,-2.0381679389312977
2024-06-05T15:22:43.296679,19.024117647058823,0.16041151123046873,2.6408044311523438,8.358157995605469,47.56488549618321,-1.2442748091603053,-1.9312977099236641
2024-06-05T15:22:43.303758,19.16529411764706,0.30885201416015623,2.6815058593749996,8.339004382324218,47.66412213740458,-1.2061068702290076,-1.7709923664122138
2024-06-05T15:22:43.311630,19.071176470588238,0.229843359375,2.786850732421875,8.406042028808594,47.37404580152672,-1.0916030534351144,-1.1526717557251909
2024-06-05T15:22:43.318986,19.024117647058823,0.143652099609375,2.798821740722656,8.386888415527343,47.732824427480914,-1.2442748091603053,-0.6870229007633588
2024-06-05T15:22:43.326058,18.97705882352941,0.239420166015625,2.7246014892578123,8.396465222167969,47.70992366412214,-1.2366412213740459,-0.6870229007633588
2024-06-05T15:22:43.332884,19.024117647058823,0.16519991455078123,2.70065947265625,8.341398583984375,48.16030534351145,-1.297709923664122,-0.3969465648854962
2024-06-05T15:22:43.339747,18.97705882352941,0.17238251953125,2.6982652709960937,8.365340600585936,48.19847328244275,-1.213740458015267,-0.07633587786259542
2024-06-05T15:22:43.347287,19.071176470588238,0.15562310791015624,2.767697119140625,8.372523205566406,48.35114503816794,-1.1297709923664123,0.19083969465648856
2024-06-05T15:22:43.354383,18.97705882352941,0.18435352783203124,2.8706477905273435,8.377311608886718,48.14503816793893,-1.2442748091603053,0.2824427480916031
2024-06-05T15:22:43.361511,18.93,0.1580173095703125,2.825157958984375,8.40843623046875,47.954198473282446,-1.4045801526717556,0.06870229007633588
2024-06-05T15:22:43.368393,18.93,0.229843359375,2.760514514160156,8.391676818847655,47.786259541984734,-1.3435114503816794,0.21374045801526717
2024-06-05T15:22:43.375179,18.93,0.21787235107421873,2.7629087158203123,8.40843623046875,48.229007633587784,-1.1374045801526718,0.25190839694656486
2024-06-05T15:22:43.383474,18.93,0.16519991455078123,2.6886884643554687,8.453926062011718,48.2442748091603,-1.251908396946565,0.0916030534351145
2024-06-05T15:22:43.390392,18.97705882352941,0.25139117431640623,2.7557261108398436,8.367734802246094,48.38931297709924,-1.083969465648855,0.03816793893129771
2024-06-05T15:22:43.397264,19.024117647058823,0.19632453613281248,2.8107927490234372,8.394071020507813,48.30534351145038,-1.3893129770992367,1.9465648854961832
2024-06-05T15:22:43.404178,19.024117647058823,0.16519991455078123,2.8730419921875,8.43956085205078,48.32824427480916,-1.4961832061068703,-0.2900763358778626
2024-06-05T15:22:43.411951,18.97705882352941,0.22266075439453123,2.8419173706054686,8.403647827148436,48.267175572519086,-1.297709923664122,-0.42748091603053434
2024-06-05T15:22:43.419282,19.024117647058823,0.1867477294921875,2.913743420410156,8.379705810546875,48.18320610687023,-1.213740458015267,-0.40458015267175573
2024-06-05T15:22:43.426474,19.024117647058823,0.2753331909179687,2.887407202148437,8.453926062011718,47.969465648854964,-1.4809160305343512,-0.5419847328244275
2024-06-05T15:22:43.433316,19.071176470588238,0.2154781494140625,2.849099975585937,8.398859423828124,48.14503816793893,-1.2671755725190839,-0.40458015267175573
2024-06-05T15:22:43.440158,18.93,0.06943184814453125,2.8993782104492185,8.298302954101562,48.49618320610687,-1.183206106870229,-0.5419847328244275
2024-06-05T15:22:43.448419,19.071176470588238,0.22744915771484372,3.047818713378906,8.327033374023436,47.99236641221374,-1.4732824427480915,-0.916030534351145
2024-06-05T15:22:43.455364,18.97705882352941,0.2537853759765625,2.9568390502929685,8.377311608886718,48.06870229007634,-1.450381679389313,-0.9847328244274809
2024-06-05T15:22:43.462238,19.024117647058823,0.2753331909179687,2.9544448486328125,8.334215979003906,47.93129770992366,-1.4122137404580153,-0.9694656488549618
2024-06-05T15:22:43.469103,19.024117647058823,0.277727392578125,3.0621839233398433,8.389282617187499,47.80916030534351,-1.2900763358778626,-1.0305343511450382
2024-06-05T15:22:43.475928,19.071176470588238,0.23223756103515625,2.961627453613281,8.336610180664062,47.778625954198475,-1.450381679389313,-1.1221374045801527
2024-06-05T15:22:43.483135,18.97705882352941,0.26815058593749996,2.9735984619140625,8.456320263671875,47.87022900763359,-1.2061068702290076,-1.3129770992366412
2024-06-05T15:22:43.490052,18.97705882352941,0.2753331909179687,2.9544448486328125,8.480262280273436,47.83206106870229,-1.1374045801526718,-1.5954198473282444
2024-06-05T15:22:43.496902,19.024117647058823,0.21308394775390624,2.987963671875,8.367734802246094,47.66412213740458,-1.4885496183206106,-1.717557251908397
2024-06-05T15:22:43.503763,18.97705882352941,0.21068974609375,2.896984008789062,8.360552197265624,47.48091603053435,-1.0916030534351144,-1.7709923664122138
2024-06-05T15:22:43.510637,19.024117647058823,0.229843359375,2.923320227050781,8.403647827148436,47.63358778625954,-1.3053435114503817,-1.9083969465648856
2024-06-05T15:22:43.517771,18.93,0.20350714111328125,2.8658593872070313,8.396465222167969,47.38931297709924,-1.3435114503816794,-1.9236641221374047
2024-06-05T15:22:43.524667,19.024117647058823,0.2346317626953125,2.85388837890625,8.463502868652343,47.58015267175573,-1.5038167938931297,-2.053435114503817
2024-06-05T15:22:43.531471,19.024117647058823,0.15562310791015624,2.89219560546875,8.432378247070313,47.61832061068702,-1.4809160305343512,-2.099236641221374
2024-06-05T15:22:43.538278,18.97705882352941,0.24899697265624998,2.942473840332031,8.358157995605469,47.63358778625954,-1.3893129770992367,-1.7633587786259541
2024-06-05T15:22:43.545499,18.93,0.2154781494140625,2.868253588867187,8.358157995605469,47.32824427480916,-1.3435114503816794,-2.045801526717557
2024-06-05T15:22:43.552777,19.024117647058823,0.2920926025390625,3.047818713378906,8.425195642089843,47.44274809160305,-1.381679389312977,-2.1526717557251906
2024-06-05T15:22:43.559849,19.071176470588238,0.18435352783203124,2.9185318237304685,8.310273962402343,47.36641221374046,-1.534351145038168,-2.213740458015267
2024-06-05T15:22:43.566699,18.97705882352941,0.25139117431640623,2.825157958984375,8.283937744140625,47.37404580152672,-1.5572519083969465,-2.1526717557251906
2024-06-05T15:22:43.573626,19.11823529411765,0.22744915771484372,2.8562825805664063,8.355763793945313,47.3587786259542,-1.3740458015267176,-0.030534351145038167
2024-06-05T15:22:43.581077,18.97705882352941,0.22266075439453123,2.8610709838867185,8.413224633789062,47.66412213740458,-1.4045801526717556,-2.2900763358778624
2024-06-05T15:22:43.588053,18.97705882352941,0.21068974609375,2.786850732421875,8.415618835449218,47.541984732824424,-1.4809160305343512,-2.16793893129771
2024-06-05T15:22:43.595155,19.024117647058823,0.2609679809570312,2.8036101440429686,8.501810095214843,47.48091603053435,-1.3129770992366412,-2.1603053435114505
2024-06-05T15:22:43.601979,18.97705882352941,0.21068974609375,2.849099975585937,8.420407238769531,47.42748091603053,-1.183206106870229,-2.282442748091603
2024-06-05T15:22:43.608747,18.97705882352941,0.22505495605468748,2.877830395507812,8.43956085205078,47.51145038167939,-1.2366412213740459,-1.9236641221374047
2024-06-05T15:22:43.616481,19.024117647058823,0.18435352783203124,2.863465185546875,8.406042028808594,47.41984732824427,-1.297709923664122,-1.83206106870229
2024-06-05T15:22:43.623397,18.97705882352941,0.19632453613281248,2.849099975585937,8.374917407226562,47.56488549618321,-1.2900763358778626,-1.8015267175572518
2024-06-05T15:22:43.630534,18.97705882352941,0.21308394775390624,2.8036101440429686,8.360552197265624,47.38931297709924,-1.282442748091603,-1.8091603053435115
2024-06-05T15:22:43.637453,19.024117647058823,0.19153613281249998,2.8945898071289062,8.406042028808594,47.41984732824427,-1.3893129770992367,-1.7404580152671756
2024-06-05T15:22:43.644808,18.97705882352941,0.21787235107421873,2.896984008789062,8.441955053710936,47.62595419847328,-1.3435114503816794,-1.4351145038167938
2024-06-05T15:22:43.652239,18.93,0.229843359375,2.863465185546875,8.420407238769531,47.6412213740458,-1.3587786259541985,-1.4198473282442747
2024-06-05T15:22:43.659181,19.024117647058823,0.18914193115234373,2.91134921875,8.434772448730468,47.30534351145038,-1.1526717557251909,-1.4351145038167938
2024-06-05T15:22:43.666004,18.97705882352941,0.22505495605468748,2.8754361938476563,8.374917407226562,47.465648854961835,-1.3893129770992367,-1.5190839694656488
2024-06-05T15:22:43.672865,19.024117647058823,0.24660277099609373,2.825157958984375,8.422801440429687,47.343511450381676,-1.1221374045801527,-1.1984732824427482
2024-06-05T15:22:43.680903,18.97705882352941,0.22744915771484372,2.8993782104492185,8.513781103515624,47.70992366412214,-1.1221374045801527,-1.4045801526717556
2024-06-05T15:22:43.687868,18.97705882352941,0.24899697265624998,2.825157958984375,8.382100012207031,47.41984732824427,-1.015267175572519,-1.4045801526717556
2024-06-05T15:22:43.694764,19.071176470588238,0.258573779296875,2.882618798828125,8.43956085205078,47.48091603053435,-1.1755725190839694,-1.4809160305343512
2024-06-05T15:22:43.701667,19.024117647058823,0.18914193115234373,2.8562825805664063,8.552088330078124,47.36641221374046,-1.3969465648854962,-1.4885496183206106
2024-06-05T15:22:43.708457,19.071176470588238,0.28490999755859375,2.8850130004882812,8.40125362548828,47.57251908396947,-1.213740458015267,-1.6106870229007633
2024-06-05T15:22:43.716713,19.024117647058823,0.1771709228515625,2.896984008789062,8.37012900390625,47.38167938931298,-1.3053435114503817,-1.5801526717557253
2024-06-05T15:22:43.723613,18.97705882352941,0.2442085693359375,2.8754361938476563,8.36294639892578,47.74809160305343,-1.3587786259541985,-1.5877862595419847
2024-06-05T15:22:43.730782,19.11823529411765,0.296881005859375,2.8850130004882812,8.396465222167969,47.33587786259542,-1.1603053435114503,-1.717557251908397
2024-06-05T15:22:43.737809,18.97705882352941,0.23702596435546874,2.9041666137695312,8.396465222167969,47.38931297709924,-1.2366412213740459,-1.7709923664122138
2024-06-05T15:22:43.745993,18.97705882352941,0.2537853759765625,2.8993782104492185,8.415618835449218,47.412213740458014,-1.2366412213740459,-1.7404580152671756
2024-06-05T15:22:43.753341,18.97705882352941,0.16998831787109375,2.89219560546875,8.406042028808594,47.2442748091603,-1.2366412213740459,-1.6488549618320612
2024-06-05T15:22:43.760259,18.97705882352941,0.3064578125,2.7748797241210936,8.372523205566406,47.534351145038165,-1.2671755725190839,-1.6946564885496183
2024-06-05T15:22:43.767340,18.97705882352941,0.21787235107421873,2.81558115234375,8.528146313476562,47.47328244274809,-1.3206106870229009,-3.885496183206107
2024-06-05T15:22:43.774097,19.024117647058823,0.18435352783203124,2.808398547363281,8.377311608886718,47.56488549618321,-1.3053435114503817,-1.900763358778626
2024-06-05T15:22:43.782676,18.97705882352941,0.1771709228515625,2.806004345703125,8.391676818847655,47.42748091603053,-1.2595419847328244,-1.9618320610687023
2024-06-05T15:22:43.789595,18.97705882352941,0.201112939453125,2.887407202148437,8.348581188964843,47.33587786259542,-1.282442748091603,-1.786259541984733
2024-06-05T15:22:43.796701,19.024117647058823,0.2442085693359375,2.7724855224609373,8.28633194580078,47.41984732824427,-1.2442748091603053,-1.7099236641221374
2024-06-05T15:22:43.803680,19.024117647058823,0.181959326171875,2.7940333374023436,8.444349255371094,47.31297709923664,-1.4274809160305344,-1.9312977099236641
2024-06-05T15:22:43.811306,18.97705882352941,0.19632453613281248,2.7365724975585937,8.530540515136718,47.19847328244275,-1.4122137404580153,-1.8778625954198473
2024-06-05T15:22:43.818774,19.024117647058823,0.16998831787109375,2.7054478759765623,8.389282617187499,47.717557251908396,-1.0534351145038168,-1.5572519083969465
2024-06-05T15:22:43.825803,18.97705882352941,0.16759411621093748,2.7269956909179687,8.396465222167969,47.62595419847328,-1.3511450381679388,-1.450381679389313
2024-06-05T15:22:43.832572,18.97705882352941,0.16759411621093748,2.760514514160156,8.547299926757812,47.49618320610687,-1.3206106870229009,-1.7099236641221374
2024-06-05T15:22:43.839434,19.071176470588238,0.16280571289062498,2.612074011230469,8.508992700195313,47.656488549618324,-1.2900763358778626,-1.6030534351145038
2024-06-05T15:22:43.847749,19.024117647058823,0.16280571289062498,2.770091320800781,8.429984045410155,47.656488549618324,-1.3053435114503817,-1.4427480916030535
2024-06-05T15:22:43.854696,19.024117647058823,0.17238251953125,2.7365724975585937,8.568847741699217,47.67175572519084,-1.3282442748091603,-1.4809160305343512
2024-06-05T15:22:43.861577,19.071176470588238,0.19871873779296872,2.779668127441406,8.511386901855468,47.97709923664122,-1.4885496183206106,-1.2671755725190839
2024-06-05T15:22:43.868607,19.024117647058823,0.15322890625,2.808398547363281,8.398859423828124,47.93893129770992,-1.366412213740458,-1.183206106870229
2024-06-05T15:22:43.875399,19.024117647058823,0.21068974609375,2.906560815429687,8.415618835449218,47.900763358778626,-1.381679389312977,-1.16793893129771
2024-06-05T15:22:43.882757,19.024117647058823,0.239420166015625,2.7533319091796873,8.394071020507813,47.86259541984733,-1.213740458015267,-1.2061068702290076
2024-06-05T15:22:43.889699,19.024117647058823,0.17956512451171874,2.829946362304687,8.353369592285155,47.725190839694655,-1.3511450381679388,-1.2213740458015268
2024-06-05T15:22:43.896817,19.071176470588238,0.19871873779296872,2.8275521606445313,8.420407238769531,47.80916030534351,-1.251908396946565,-1.2366412213740459
2024-06-05T15:22:43.903662,19.11823529411765,0.20829554443359374,2.8131869506835936,8.434772448730468,47.97709923664122,-1.3740458015267176,-1.0687022900763359
2024-06-05T15:22:43.910506,18.97705882352941,0.20350714111328125,2.8371289672851563,8.410830432128906,47.74045801526717,-1.3740458015267176,-1.2595419847328244
2024-06-05T15:22:43.918395,19.071176470588238,0.17238251953125,2.8419173706054686,8.449137658691406,48.0763358778626,-1.4274809160305344,-1.3358778625954197
2024-06-05T15:22:43.925293,19.024117647058823,0.23702596435546874,2.8730419921875,8.298302954101562,47.89312977099237,-1.3435114503816794,-1.4198473282442747
2024-06-05T15:22:43.932117,18.97705882352941,0.24660277099609373,2.8730419921875,8.420407238769531,47.87022900763359,-1.3740458015267176,-1.2671755725190839
2024-06-05T15:22:43.939036,18.97705882352941,0.316034619140625,2.85388837890625,8.56166513671875,47.83969465648855,-1.2061068702290076,-1.3969465648854962
2024-06-05T15:22:43.946690,19.071176470588238,0.296881005859375,2.9185318237304685,8.336610180664062,47.786259541984734,-1.1984732824427482,-1.297709923664122
2024-06-05T15:22:43.953808,19.024117647058823,0.2609679809570312,2.8514941772460936,8.348581188964843,47.717557251908396,-1.282442748091603,-1.3740458015267176
2024-06-05T15:22:43.960741,18.93,0.239420166015625,2.8802245971679685,8.449137658691406,47.916030534351144,-1.3358778625954197,-1.5572519083969465
2024-06-05T15:22:43.967766,19.071176470588238,0.239420166015625,2.834734765625,8.365340600585936,47.97709923664122,-1.450381679389313,-1.5190839694656488
2024-06-05T15:22:43.974559,19.071176470588238,0.23702596435546874,2.85388837890625,8.350975390624999,47.70992366412214,-1.3893129770992367,-1.6488549618320612
2024-06-05T15:22:43.982792,19.024117647058823,0.24899697265624998,2.844311572265625,8.339004382324218,47.732824427480914,-1.3129770992366412,-1.549618320610687
2024-06-05T15:22:43.989680,19.024117647058823,0.21308394775390624,2.901772412109375,8.350975390624999,47.83206106870229,-1.3587786259541985,-1.618320610687023
2024-06-05T15:22:43.996525,18.97705882352941,0.2753331909179687,3.0550013183593747,8.403647827148436,47.595419847328245,-1.3053435114503817,-1.6259541984732824
2024-06-05T15:22:44.003475,18.97705882352941,0.20829554443359374,2.91134921875,8.396465222167969,47.908396946564885,-1.4122137404580153,-1.5954198473282444
2024-06-05T15:22:44.010389,19.024117647058823,0.2154781494140625,2.8610709838867185,8.396465222167969,47.50381679389313,-1.2290076335877862,-1.5419847328244274
2024-06-05T15:22:44.017599,19.024117647058823,0.2059013427734375,2.8802245971679685,8.415618835449218,47.89312977099237,-1.2595419847328244,-1.7099236641221374
2024-06-05T15:22:44.024519,19.024117647058823,0.239420166015625,2.8467057739257813,8.396465222167969,47.86259541984733,-1.450381679389313,-1.4961832061068703
2024-06-05T15:22:44.031346,18.97705882352941,0.19871873779296872,2.8850130004882812,8.33182177734375,47.587786259541986,-1.1068702290076335,-1.5267175572519085
2024-06-05T15:22:44.038250,18.97705882352941,0.20350714111328125,2.877830395507812,8.549694128417968,47.51908396946565,-1.534351145038168,-1.6030534351145038
2024-06-05T15:22:44.047462,18.835882352941177,0.22505495605468748,2.868253588867187,8.518569506835936,47.732824427480914,-1.4198473282442747,-1.5877862595419847
2024-06-05T15:22:44.054529,19.11823529411765,0.19393033447265623,2.882618798828125,8.482656481933594,47.69465648854962,-1.4351145038167938,-1.381679389312977
2024-06-05T15:22:44.061504,19.024117647058823,0.21787235107421873,2.89219560546875,8.444349255371094,47.48091603053435,-1.3129770992366412,-1.5725190839694656
2024-06-05T15:22:44.068612,19.071176470588238,0.19871873779296872,2.767697119140625,8.398859423828124,47.6412213740458,-1.2213740458015268,-1.5877862595419847
2024-06-05T15:22:44.075409,18.93,0.2609679809570312,2.932897033691406,8.303091357421874,47.57251908396947,-1.3206106870229009,-1.6412213740458015
2024-06-05T15:22:44.083236,19.071176470588238,0.1867477294921875,2.89219560546875,8.40125362548828,47.70229007633588,-1.2671755725190839,-1.5725190839694656
2024-06-05T15:22:44.090175,19.071176470588238,0.21308394775390624,2.9041666137695312,8.389282617187499,47.62595419847328,-1.3587786259541985,-1.549618320610687
2024-06-05T15:22:44.097029,19.024117647058823,0.258573779296875,2.8754361938476563,8.360552197265624,47.404580152671755,-1.251908396946565,-1.7404580152671756
2024-06-05T15:22:44.103892,18.97705882352941,0.2920926025390625,2.8754361938476563,8.501810095214843,47.587786259541986,-1.366412213740458,-1.6717557251908397
2024-06-05T15:22:44.110756,19.071176470588238,0.18435352783203124,2.85388837890625,8.353369592285155,47.48854961832061,-1.3893129770992367,-1.702290076335878
2024-06-05T15:22:44.118009,19.071176470588238,0.296881005859375,2.923320227050781,8.425195642089843,47.62595419847328,-1.2290076335877862,-1.7786259541984732
2024-06-05T15:22:44.124881,19.024117647058823,0.24660277099609373,2.932897033691406,8.398859423828124,47.35114503816794,-1.3053435114503817,-1.748091603053435
2024-06-05T15:22:44.131697,19.071176470588238,0.22026655273437498,2.93050283203125,8.418013037109375,47.404580152671755,-1.5419847328244274,-1.7633587786259541
2024-06-05T15:22:44.138551,18.97705882352941,0.24899697265624998,2.9376854370117185,8.564059338378906,47.51145038167939,-1.1450381679389312,-1.7786259541984732
2024-06-05T15:22:44.145473,19.024117647058823,0.23223756103515625,2.8898014038085935,8.429984045410155,47.51908396946565,-1.1908396946564885,-1.7938931297709924
2024-06-05T15:22:44.152906,19.024117647058823,0.45489831542968745,2.8754361938476563,8.444349255371094,47.51145038167939,-1.2442748091603053,-1.7786259541984732
2024-06-05T15:22:44.159791,19.024117647058823,0.25139117431640623,2.9089550170898435,8.391676818847655,47.465648854961835,-1.3206106870229009,-1.618320610687023
2024-06-05T15:22:44.166649,19.024117647058823,0.22744915771484372,2.9089550170898435,8.32463917236328,47.38931297709924,-1.3511450381679388,-1.9618320610687023
2024-06-05T15:22:44.173462,18.93,0.22026655273437498,2.858676782226562,8.298302954101562,47.36641221374046,-1.1221374045801527,-3.8625954198473282
2024-06-05T15:22:44.180692,18.93,0.25139117431640623,2.8275521606445313,8.413224633789062,47.38931297709924,-1.2290076335877862,-1.8015267175572518
2024-06-05T15:22:44.187713,19.071176470588238,0.2059013427734375,2.8706477905273435,8.410830432128906,47.465648854961835,-1.2748091603053435,-1.7633587786259541
2024-06-05T15:22:44.194579,19.11823529411765,0.21308394775390624,2.8945898071289062,8.425195642089843,47.282442748091604,-1.5572519083969465,-1.7786259541984732
2024-06-05T15:22:44.201430,18.97705882352941,0.16280571289062498,2.863465185546875,8.394071020507813,47.045801526717554,-1.4351145038167938,-1.618320610687023
2024-06-05T15:22:44.208230,19.024117647058823,0.15562310791015624,2.849099975585937,8.394071020507813,47.18320610687023,-1.297709923664122,-1.6488549618320612
2024-06-05T15:22:44.215493,18.93,0.181959326171875,2.8036101440429686,8.422801440429687,47.274809160305345,-1.4427480916030535,-1.5190839694656488
2024-06-05T15:22:44.222408,19.024117647058823,0.1580173095703125,2.789244934082031,8.353369592285155,47.50381679389313,-1.4274809160305344,-1.3893129770992367
2024-06-05T15:22:44.229280,18.882941176470588,0.2154781494140625,2.7054478759765623,8.480262280273436,47.3206106870229,-1.3511450381679388,-1.2900763358778626
2024-06-05T15:22:44.236142,19.024117647058823,0.22026655273437498,2.7629087158203123,8.453926062011718,47.70229007633588,-1.1297709923664123,-1.2900763358778626
2024-06-05T15:22:44.243026,18.93,0.17477672119140625,2.779668127441406,8.43956085205078,47.55725190839695,-1.2671755725190839,-1.4122137404580153
2024-06-05T15:22:44.250288,18.97705882352941,0.19632453613281248,2.8107927490234372,8.470685473632813,47.55725190839695,-1.282442748091603,-1.4732824427480915
2024-06-05T15:22:44.257211,19.024117647058823,0.20829554443359374,2.7150246826171873,8.432378247070313,47.57251908396947,-1.4045801526717556,-1.618320610687023
2024-06-05T15:22:44.264056,19.024117647058823,0.20829554443359374,2.6886884643554687,8.398859423828124,47.74045801526717,-1.1755725190839694,-1.3587786259541985
2024-06-05T15:22:44.270923,19.071176470588238,0.19632453613281248,2.7581203125,8.44674345703125,47.61068702290076,-1.4274809160305344,-1.4885496183206106
2024-06-05T15:22:44.277790,19.024117647058823,0.17238251953125,2.789244934082031,8.415618835449218,47.80916030534351,-1.2900763358778626,-1.2671755725190839
2024-06-05T15:22:44.284986,19.024117647058823,0.2609679809570312,2.7653029174804686,8.40125362548828,47.64885496183206,-1.2671755725190839,-1.4198473282442747
2024-06-05T15:22:44.291862,19.024117647058823,0.16759411621093748,2.8012159423828122,8.389282617187499,47.52671755725191,-1.3893129770992367,-1.4885496183206106
2024-06-05T15:22:44.298680,19.024117647058823,0.28730419921875,2.7581203125,8.413224633789062,47.656488549618324,-1.4580152671755726,-1.3206106870229009
2024-06-05T15:22:44.305534,18.93,0.2442085693359375,2.7916391357421872,8.475473876953124,47.74809160305343,-1.5419847328244274,-1.549618320610687
2024-06-05T15:22:44.314054,19.071176470588238,0.2537853759765625,2.779668127441406,8.482656481933594,47.954198473282446,-1.5572519083969465,-1.16793893129771
2024-06-05T15:22:44.321060,19.071176470588238,0.4429273071289062,2.806004345703125,8.281543542480469,47.87022900763359,-1.2290076335877862,-1.3282442748091603
2024-06-05T15:22:44.328197,19.024117647058823,0.2657563842773437,2.798821740722656,8.406042028808594,47.89312977099237,-1.3893129770992367,-1.5648854961832062
2024-06-05T15:22:44.335183,19.071176470588238,0.27293898925781246,2.8610709838867185,8.432378247070313,47.916030534351144,-1.213740458015267,-1.3511450381679388
2024-06-05T15:22:44.341973,18.97705882352941,0.430956298828125,2.8610709838867185,8.384494213867187,48.0,-1.2748091603053435,-1.3435114503816794
2024-06-05T15:22:44.350251,19.024117647058823,0.28490999755859375,2.9185318237304685,8.415618835449218,47.717557251908396,-1.1068702290076335,-1.4045801526717556
2024-06-05T15:22:44.357179,19.024117647058823,0.24660277099609373,2.849099975585937,8.391676818847655,47.88549618320611,-1.3129770992366412,-1.366412213740458
2024-06-05T15:22:44.364228,19.024117647058823,0.296881005859375,2.8993782104492185,8.492233288574218,47.79389312977099,-1.2366412213740459,-1.5725190839694656
2024-06-05T15:22:44.371151,18.93,0.2154781494140625,2.8227637573242186,8.413224633789062,47.93893129770992,-1.366412213740458,-1.5114503816793894
2024-06-05T15:22:44.378440,19.071176470588238,0.21308394775390624,2.8993782104492185,8.461108666992187,47.916030534351144,-1.3358778625954197,-1.4351145038167938
2024-06-05T15:22:44.385710,19.024117647058823,0.18914193115234373,2.887407202148437,8.329427575683594,47.961832061068705,-1.3358778625954197,-1.5038167938931297
2024-06-05T15:22:44.392747,19.024117647058823,0.24660277099609373,3.057395520019531,8.341398583984375,47.908396946564885,-1.2213740458015268,-1.7328244274809161
2024-06-05T15:22:44.399692,19.024117647058823,0.1867477294921875,2.8802245971679685,8.372523205566406,48.06870229007634,-1.4427480916030535,-1.4732824427480915
2024-06-05T15:22:44.406514,19.071176470588238,0.15562310791015624,2.8467057739257813,8.480262280273436,47.7557251908397,-1.3969465648854962,-1.6793893129770991
2024-06-05T15:22:44.414377,18.97705882352941,0.22744915771484372,2.9041666137695312,8.410830432128906,47.81679389312977,-1.4274809160305344,-1.83206106870229
2024-06-05T15:22:44.421317,19.024117647058823,0.181959326171875,2.89219560546875,8.482656481933594,47.786259541984734,-1.5419847328244274,-1.9083969465648856
2024-06-05T15:22:44.428194,19.024117647058823,0.2154781494140625,2.9448680419921875,8.329427575683594,47.770992366412216,-1.3129770992366412,-1.7557251908396947
2024-06-05T15:22:44.435054,18.97705882352941,0.29927520751953124,2.8371289672851563,8.425195642089843,47.595419847328245,-1.618320610687023,-1.8702290076335877
2024-06-05T15:22:44.441864,19.024117647058823,0.19393033447265623,2.8754361938476563,8.441955053710936,47.6412213740458,-1.4351145038167938,-3.8625954198473282
2024-06-05T15:22:44.449082,19.024117647058823,0.181959326171875,2.8610709838867185,8.379705810546875,47.68702290076336,-1.2213740458015268,-3.9083969465648853
2024-06-05T15:22:44.456023,19.024117647058823,0.20829554443359374,2.8227637573242186,8.341398583984375,47.61832061068702,-1.5038167938931297,-3.8931297709923665
2024-06-05T15:22:44.462882,19.071176470588238,0.0,2.863465185546875,8.329427575683594,47.63358778625954,-1.3053435114503817,-1.6717557251908397
2024-06-05T15:22:44.469767,19.024117647058823,0.17956512451171874,2.8898014038085935,8.372523205566406,47.57251908396947,-1.5038167938931297,-1.7099236641221374
2024-06-05T15:22:44.476627,18.93,0.21068974609375,2.8754361938476563,8.396465222167969,47.6793893129771,-1.3282442748091603,-1.4961832061068703
2024-06-05T15:22:44.483892,18.93,0.21308394775390624,2.8945898071289062,8.379705810546875,47.51145038167939,-1.1374045801526718,-1.5114503816793894
2024-06-05T15:22:44.490803,18.93,0.2537853759765625,3.0454245117187497,8.389282617187499,47.458015267175576,-1.2366412213740459,-1.4198473282442747
2024-06-05T15:22:44.497649,18.97705882352941,0.2561795776367187,2.882618798828125,8.360552197265624,47.51145038167939,-1.3587786259541985,-1.4198473282442747
2024-06-05T15:22:44.504494,19.024117647058823,0.2705447875976562,2.8993782104492185,8.394071020507813,47.412213740458014,-1.3282442748091603,-1.2442748091603053
2024-06-05T15:22:44.511356,18.97705882352941,0.26815058593749996,2.9376854370117185,8.453926062011718,47.52671755725191,-1.2213740458015268,-1.1526717557251909
2024-06-05T15:22:44.518576,19.11823529411765,0.2705447875976562,2.825157958984375,8.379705810546875,47.80152671755725,-1.16793893129771,-1.1984732824427482
2024-06-05T15:22:44.525451,18.882941176470588,0.21787235107421873,2.916137622070312,8.425195642089843,47.6793893129771,-1.3435114503816794,-1.1526717557251909
2024-06-05T15:22:44.532284,19.024117647058823,0.28730419921875,2.93050283203125,8.415618835449218,47.7557251908397,-1.0305343511450382,-1.1297709923664123
2024-06-05T15:22:44.539120,19.071176470588238,0.21787235107421873,2.942473840332031,8.358157995605469,47.282442748091604,-1.2290076335877862,-1.2442748091603053
2024-06-05T15:22:44.546437,19.024117647058823,0.20829554443359374,3.057395520019531,8.473079675292968,47.587786259541986,-1.1908396946564885,-1.2366412213740459
2024-06-05T15:22:44.553616,19.024117647058823,0.2753331909179687,2.877830395507812,8.480262280273436,47.404580152671755,-1.083969465648855,-1.465648854961832
2024-06-05T15:22:44.560511,18.97705882352941,0.26815058593749996,2.8467057739257813,8.418013037109375,47.6793893129771,-1.183206106870229,-1.4580152671755726
2024-06-05T15:22:44.567366,19.11823529411765,0.23702596435546874,2.8323405639648436,8.384494213867187,47.3206106870229,-1.4732824427480915,-1.381679389312977
2024-06-05T15:22:44.574164,18.97705882352941,0.2346317626953125,2.806004345703125,8.463502868652343,47.44274809160305,-1.3129770992366412,-1.5877862595419847
2024-06-05T15:22:44.581378,18.97705882352941,0.21787235107421873,2.8012159423828122,8.346186987304687,47.541984732824424,-1.2366412213740459,-1.5114503816793894
2024-06-05T15:22:44.588300,19.071176470588238,0.19632453613281248,2.808398547363281,8.312668164062499,47.25954198473283,-1.1603053435114503,-1.7099236641221374
2024-06-05T15:22:44.595176,19.11823529411765,0.17956512451171874,2.808398547363281,8.37012900390625,47.11450381679389,-1.282442748091603,-1.6870229007633588
2024-06-05T15:22:44.602027,18.93,0.28969840087890625,2.844311572265625,8.40843623046875,47.343511450381676,-1.1908396946564885,-1.702290076335878
2024-06-05T15:22:44.608821,19.024117647058823,0.239420166015625,2.8107927490234372,8.365340600585936,47.37404580152672,-1.1984732824427482,-1.8702290076335877
2024-06-05T15:22:44.616034,18.97705882352941,0.1580173095703125,2.825157958984375,8.341398583984375,47.458015267175576,-1.2671755725190839,-1.83206106870229
2024-06-05T15:22:44.622983,18.97705882352941,0.23223756103515625,2.7964275390625,8.40843623046875,47.404580152671755,-1.251908396946565,-2.015267175572519
2024-06-05T15:22:44.629880,19.024117647058823,0.21787235107421873,2.834734765625,8.415618835449218,47.43511450381679,-1.4198473282442747,-1.9083969465648856
2024-06-05T15:22:44.636740,18.97705882352941,0.201112939453125,2.8036101440429686,8.456320263671875,47.49618320610687,-1.3206106870229009,-1.8244274809160306
2024-06-05T15:22:44.644824,19.024117647058823,0.1580173095703125,2.8036101440429686,8.465897070312499,47.42748091603053,-1.3511450381679388,-1.7786259541984732
2024-06-05T15:22:44.652287,18.93,0.22266075439453123,2.817975354003906,8.303091357421874,47.62595419847328,-1.1526717557251909,-1.8015267175572518
2024-06-05T15:22:44.659466,18.93,0.22744915771484372,2.77727392578125,8.444349255371094,47.55725190839695,-1.3282442748091603,-1.7938931297709924
2024-06-05T15:22:44.666297,18.97705882352941,0.201112939453125,2.7150246826171873,8.44674345703125,47.66412213740458,-1.381679389312977,-1.7557251908396947
2024-06-05T15:22:44.673133,19.024117647058823,0.16998831787109375,2.767697119140625,8.374917407226562,47.76335877862596,-1.3511450381679388,-1.534351145038168
2024-06-05T15:22:44.681374,18.97705882352941,0.17956512451171874,2.779668127441406,8.372523205566406,47.52671755725191,-1.5114503816793894,-1.6793893129770991
2024-06-05T15:22:44.688336,18.97705882352941,0.04548983154296875,2.789244934082031,8.367734802246094,47.52671755725191,-1.3053435114503817,-1.5954198473282444
2024-06-05T15:22:44.695224,18.93,0.19871873779296872,2.779668127441406,8.341398583984375,47.458015267175576,-1.2213740458015268,-1.465648854961832
2024-06-05T15:22:44.702220,18.882941176470588,0.22505495605468748,2.770091320800781,8.386888415527343,47.916030534351144,-1.5190839694656488,-1.549618320610687
2024-06-05T15:22:44.709033,19.024117647058823,0.2657563842773437,2.825157958984375,8.377311608886718,48.030534351145036,-1.450381679389313,-1.297709923664122
2024-06-05T15:22:44.717251,19.024117647058823,0.21787235107421873,2.829946362304687,8.427589843749999,47.770992366412216,-1.4122137404580153,-1.4885496183206106
2024-06-05T15:22:44.724198,18.93,0.19871873779296872,2.806004345703125,8.552088330078124,47.9236641221374,-1.2900763358778626,-1.4351145038167938
2024-06-05T15:22:44.731289,19.071176470588238,0.2059013427734375,2.798821740722656,8.432378247070313,47.900763358778626,-1.2213740458015268,-1.3893129770992367
2024-06-05T15:22:44.738175,19.024117647058823,0.24660277099609373,2.8012159423828122,8.43956085205078,47.93129770992366,-1.282442748091603,-1.3435114503816794
2024-06-05T15:22:44.746185,19.024117647058823,0.23702596435546874,2.85388837890625,8.535328918457031,48.213740458015266,-1.3435114503816794,-1.3740458015267176
2024-06-05T15:22:44.753435,19.071176470588238,0.2609679809570312,2.8227637573242186,8.310273962402343,48.13740458015267,-1.3740458015267176,-1.4732824427480915
2024-06-05T15:22:44.760575,18.93,0.25139117431640623,2.8371289672851563,8.432378247070313,47.916030534351144,-1.4351145038167938,-1.3435114503816794
2024-06-05T15:22:44.767576,18.97705882352941,0.24181436767578124,2.8802245971679685,8.382100012207031,47.83969465648855,-1.4351145038167938,-1.3206106870229009
2024-06-05T15:22:44.774379,19.024117647058823,0.22744915771484372,2.8802245971679685,8.542511523437499,48.10687022900763,-1.450381679389313,-1.4351145038167938
2024-06-05T15:22:44.782771,19.024117647058823,0.28969840087890625,3.0166940917968748,8.312668164062499,47.61068702290076,-1.3511450381679388,-1.4045801526717556
2024-06-05T15:22:44.789728,19.024117647058823,0.2442085693359375,2.8371289672851563,8.355763793945313,47.717557251908396,-1.4809160305343512,-1.5267175572519085
2024-06-05T15:22:44.796628,18.97705882352941,0.18914193115234373,2.8514941772460936,8.394071020507813,47.89312977099237,-1.4580152671755726,-1.6946564885496183
2024-06-05T15:22:44.803517,19.071176470588238,0.21787235107421873,2.8706477905273435,8.367734802246094,47.7557251908397,-1.3511450381679388,-1.6412213740458015
2024-06-05T15:22:44.811075,19.024117647058823,0.21787235107421873,2.7844565307617186,8.434772448730468,47.80152671755725,-1.3587786259541985,-1.5877862595419847
2024-06-05T15:22:44.818562,19.024117647058823,0.3016694091796875,2.8754361938476563,8.386888415527343,47.86259541984733,-1.0763358778625953,-1.5648854961832062
2024-06-05T15:22:44.825756,19.11823529411765,0.21308394775390624,2.8514941772460936,8.298302954101562,47.89312977099237,-1.4198473282442747,-1.7099236641221374
2024-06-05T15:22:44.832583,19.071176470588238,0.229843359375,3.0310593017578125,8.358157995605469,47.81679389312977,-1.2748091603053435,-1.816793893129771
2024-06-05T15:22:44.839450,19.024117647058823,0.28730419921875,2.8706477905273435,8.334215979003906,47.85496183206107,-1.4122137404580153,-1.6564885496183206
2024-06-05T15:22:44.847072,19.024117647058823,0.28012159423828126,2.91134921875,8.394071020507813,47.69465648854962,-1.3511450381679388,-1.7404580152671756
2024-06-05T15:22:44.854099,19.024117647058823,0.26336218261718747,2.9185318237304685,8.374917407226562,47.63358778625954,-1.213740458015267,-1.6259541984732824
2024-06-05T15:22:44.861132,18.97705882352941,0.24660277099609373,2.959233251953125,8.432378247070313,47.74045801526717,-1.2748091603053435,-1.6030534351145038
2024-06-05T15:22:44.868002,19.024117647058823,0.24660277099609373,2.920926025390625,8.427589843749999,47.76335877862596,-1.4198473282442747,-1.6259541984732824
2024-06-05T15:22:44.874758,19.024117647058823,0.20829554443359374,3.0310593017578125,8.410830432128906,47.45038167938932,-1.251908396946565,-1.450381679389313
2024-06-05T15:22:44.883881,19.024117647058823,0.22505495605468748,2.8898014038085935,8.391676818847655,47.85496183206107,-1.4274809160305344,-1.6030534351145038
2024-06-05T15:22:44.890813,18.97705882352941,0.21308394775390624,2.89219560546875,8.384494213867187,47.64885496183206,-1.3282442748091603,-1.465648854961832
2024-06-05T15:22:44.897746,19.024117647058823,0.2561795776367187,2.901772412109375,8.283937744140625,47.7557251908397,-1.2671755725190839,-1.4045801526717556
2024-06-05T15:22:44.904719,19.024117647058823,0.277727392578125,2.91134921875,8.415618835449218,47.61068702290076,-1.366412213740458,-1.4809160305343512
2024-06-05T15:22:44.912840,19.024117647058823,0.24899697265624998,2.901772412109375,8.298302954101562,47.58015267175573,-1.3587786259541985,-1.5419847328244274
2024-06-05T15:22:44.920148,18.97705882352941,0.2561795776367187,2.9496564453125,8.305485559082031,47.41984732824427,-1.3435114503816794,-1.4045801526717556
2024-06-05T15:22:44.927044,19.11823529411765,0.277727392578125,3.0550013183593747,8.444349255371094,47.32824427480916,-1.3053435114503817,-1.3206106870229009
2024-06-05T15:22:44.933947,19.024117647058823,0.258573779296875,2.887407202148437,8.418013037109375,47.29770992366412,-1.3053435114503817,-1.5419847328244274
2024-06-05T15:22:44.940775,18.97705882352941,0.16280571289062498,2.8945898071289062,8.389282617187499,47.458015267175576,-1.297709923664122,-1.5114503816793894
2024-06-05T15:22:44.948920,19.071176470588238,0.1580173095703125,2.901772412109375,8.379705810546875,47.42748091603053,-1.2748091603053435,-1.534351145038168
2024-06-05T15:22:44.955857,18.97705882352941,0.258573779296875,2.863465185546875,8.353369592285155,47.44274809160305,-1.1526717557251909,-1.5572519083969465
2024-06-05T15:22:44.962777,19.024117647058823,0.14125789794921875,2.839523168945312,8.494627490234375,47.47328244274809,-1.2595419847328244,-1.5725190839694656
2024-06-05T15:22:44.969659,18.93,0.22505495605468748,2.7940333374023436,8.528146313476562,47.412213740458014,-1.297709923664122,-1.6030534351145038
2024-06-05T15:22:44.976590,19.024117647058823,0.2657563842773437,2.8610709838867185,8.40125362548828,47.396946564885496,-1.2290076335877862,-1.7328244274809161
2024-06-05T15:22:44.984105,18.93,0.21787235107421873,2.8419173706054686,8.415618835449218,47.465648854961835,-1.1526717557251909,-1.7404580152671756
2024-06-05T15:22:44.991038,19.024117647058823,0.16041151123046873,2.8850130004882812,8.444349255371094,47.30534351145038,-1.1068702290076335,-1.6259541984732824
2024-06-05T15:22:44.998070,18.97705882352941,0.2561795776367187,2.834734765625,8.398859423828124,47.23664122137404,-1.2061068702290076,-1.6793893129770991
2024-06-05T15:22:45.004893,19.024117647058823,0.18914193115234373,2.85388837890625,8.358157995605469,47.19847328244275,-1.4045801526717556,-1.6870229007633588
2024-06-05T15:22:45.012419,19.024117647058823,0.229843359375,2.834734765625,8.336610180664062,47.48091603053435,-1.2442748091603053,-1.5648854961832062
2024-06-05T15:22:45.019779,19.024117647058823,0.2346317626953125,2.8419173706054686,8.449137658691406,47.74045801526717,-1.2366412213740459,-1.3740458015267176
2024-06-05T15:22:45.026748,18.93,0.20350714111328125,2.839523168945312,8.422801440429687,47.38931297709924,-1.2748091603053435,-1.5648854961832062
2024-06-05T15:22:45.033779,19.024117647058823,0.296881005859375,2.906560815429687,8.367734802246094,47.44274809160305,-1.3206106870229009,-1.4045801526717556
2024-06-05T15:22:45.040622,19.071176470588238,0.24181436767578124,2.8419173706054686,8.434772448730468,47.38167938931298,-1.282442748091603,-1.4045801526717556
2024-06-05T15:22:45.048266,19.071176470588238,0.24660277099609373,2.817975354003906,8.365340600585936,47.412213740458014,-1.2595419847328244,-1.3511450381679388
2024-06-05T15:22:45.055229,19.071176470588238,0.2657563842773437,2.7940333374023436,8.427589843749999,47.38931297709924,-1.282442748091603,-1.3587786259541985
2024-06-05T15:22:45.062291,19.024117647058823,0.23223756103515625,2.8467057739257813,8.432378247070313,47.61832061068702,-1.381679389312977,-1.5877862595419847
2024-06-05T15:22:45.069218,18.93,0.24899697265624998,2.8562825805664063,8.494627490234375,47.41984732824427,-1.1984732824427482,-1.3435114503816794
2024-06-05T15:22:45.076119,19.071176470588238,0.19393033447265623,2.8036101440429686,8.327033374023436,47.93129770992366,-1.1984732824427482,-1.5725190839694656
2024-06-05T15:22:45.083534,19.071176470588238,0.21068974609375,2.806004345703125,8.394071020507813,47.49618320610687,-1.2442748091603053,-1.4809160305343512
2024-06-05T15:22:45.090454,18.97705882352941,0.16998831787109375,2.8467057739257813,8.398859423828124,47.51908396946565,-1.2290076335877862,-1.4122137404580153
2024-06-05T15:22:45.097318,19.024117647058823,0.20350714111328125,2.7533319091796873,8.37012900390625,47.534351145038165,-1.3740458015267176,-1.534351145038168
2024-06-05T15:22:45.104273,19.024117647058823,0.2537853759765625,2.8131869506835936,8.40125362548828,47.541984732824424,-1.251908396946565,-1.6259541984732824
2024-06-05T15:22:45.111145,19.071176470588238,0.2825157958984375,2.8419173706054686,8.394071020507813,47.595419847328245,-1.2061068702290076,-1.7557251908396947
2024-06-05T15:22:45.118320,19.071176470588238,0.181959326171875,2.829946362304687,8.406042028808594,47.43511450381679,-1.251908396946565,-1.5419847328244274
2024-06-05T15:22:45.125198,18.97705882352941,0.15562310791015624,2.779668127441406,8.458714465332031,47.55725190839695,-1.16793893129771,-1.4274809160305344
2024-06-05T15:22:45.131972,18.97705882352941,0.19393033447265623,2.7844565307617186,8.449137658691406,47.86259541984733,-1.3053435114503817,-1.5038167938931297
2024-06-05T15:22:45.138793,19.024117647058823,0.17238251953125,2.825157958984375,8.300697155761718,47.7557251908397,-1.4198473282442747,-1.4351145038167938
2024-06-05T15:22:45.145940,19.071176470588238,0.2154781494140625,2.779668127441406,8.341398583984375,47.717557251908396,-1.2061068702290076,-1.5725190839694656
2024-06-05T15:22:45.153151,18.93,0.22744915771484372,2.7940333374023436,8.384494213867187,47.68702290076336,-1.4351145038167938,-1.6946564885496183
2024-06-05T15:22:45.160027,19.071176470588238,0.20350714111328125,2.7820623291015623,8.511386901855468,47.81679389312977,-1.3740458015267176,-1.5954198473282444
2024-06-05T15:22:45.166972,19.071176470588238,0.2609679809570312,2.81558115234375,8.463502868652343,47.32824427480916,-1.3511450381679388,-1.6793893129770991
2024-06-05T15:22:45.173730,19.071176470588238,0.1867477294921875,2.808398547363281,8.406042028808594,47.56488549618321,-1.450381679389313,-1.6870229007633588
2024-06-05T15:22:45.181279,19.024117647058823,0.20829554443359374,2.906560815429687,8.44674345703125,47.847328244274806,-1.282442748091603,-1.6412213740458015
2024-06-05T15:22:45.188180,19.024117647058823,0.1867477294921875,2.798821740722656,8.2743609375,47.58015267175573,-1.1984732824427482,-1.549618320610687
2024-06-05T15:22:45.195089,19.071176470588238,0.21068974609375,2.808398547363281,8.327033374023436,47.62595419847328,-1.2748091603053435,-1.7557251908396947
2024-06-05T15:22:45.202119,18.93,0.2346317626953125,2.8562825805664063,8.312668164062499,47.51145038167939,-1.3435114503816794,-1.6870229007633588
2024-06-05T15:22:45.208911,18.97705882352941,0.23223756103515625,2.8323405639648436,8.394071020507813,47.396946564885496,-1.3969465648854962,-1.6412213740458015
2024-06-05T15:22:45.216101,18.882941176470588,0.24899697265624998,2.7724855224609373,8.355763793945313,47.63358778625954,-1.099236641221374,-1.6106870229007633
2024-06-05T15:22:45.222984,19.024117647058823,0.26336218261718747,2.81558115234375,8.429984045410155,48.099236641221374,-1.3129770992366412,-1.5725190839694656
2024-06-05T15:22:45.230106,19.024117647058823,0.22744915771484372,2.808398547363281,8.410830432128906,47.89312977099237,-1.450381679389313,-1.381679389312977
2024-06-05T15:22:45.237011,19.071176470588238,0.15083470458984374,2.8850130004882812,8.367734802246094,47.85496183206107,-1.1450381679389312,-1.2290076335877862
2024-06-05T15:22:45.243883,18.97705882352941,0.2059013427734375,2.8371289672851563,8.319850769042969,47.67175572519084,-1.2366412213740459,-1.381679389312977
2024-06-05T15:22:45.251042,19.024117647058823,0.258573779296875,2.8610709838867185,8.379705810546875,47.80916030534351,-1.213740458015267,-1.3893129770992367
2024-06-05T15:22:45.257894,18.93,0.21787235107421873,2.8993782104492185,8.410830432128906,47.656488549618324,-1.4198473282442747,-1.3282442748091603
2024-06-05T15:22:45.264720,18.97705882352941,0.2346317626953125,2.8562825805664063,8.559270935058594,47.61832061068702,-1.251908396946565,-1.251908396946565
2024-06-05T15:22:45.271580,18.93,0.24660277099609373,2.7629087158203123,8.382100012207031,47.6793893129771,-1.251908396946565,-1.3206106870229009
2024-06-05T15:22:45.278459,19.024117647058823,0.16519991455078123,2.7844565307617186,8.391676818847655,47.62595419847328,-1.4961832061068703,-1.4885496183206106
2024-06-05T15:22:45.285717,19.024117647058823,0.26815058593749996,2.7581203125,8.418013037109375,47.61832061068702,-1.4351145038167938,-1.6412213740458015
2024-06-05T15:22:45.292607,19.024117647058823,0.2537853759765625,2.8036101440429686,8.403647827148436,47.88549618320611,-1.366412213740458,-1.7786259541984732
2024-06-05T15:22:45.299418,19.024117647058823,0.2442085693359375,2.8275521606445313,8.518569506835936,47.74809160305343,-1.366412213740458,-1.6870229007633588
2024-06-05T15:22:45.306250,19.024117647058823,0.19632453613281248,2.8658593872070313,8.36294639892578,47.61832061068702,-1.3893129770992367,-1.8854961832061068
2024-06-05T15:22:45.314848,19.071176470588238,0.16041151123046873,2.779668127441406,8.406042028808594,47.85496183206107,-1.4351145038167938,-0.022900763358778626
2024-06-05T15:22:45.321788,18.97705882352941,0.2346317626953125,2.7748797241210936,8.384494213867187,47.76335877862596,-1.3893129770992367,-1.9312977099236641
2024-06-05T15:22:45.328683,19.071176470588238,0.181959326171875,2.8323405639648436,8.360552197265624,47.85496183206107,-1.5877862595419847,-2.068702290076336
2024-06-05T15:22:45.335598,19.024117647058823,0.16759411621093748,2.8036101440429686,8.47786807861328,47.70992366412214,-1.3282442748091603,-0.007633587786259542
2024-06-05T15:22:45.342433,18.97705882352941,0.22505495605468748,2.8610709838867185,8.489839086914062,47.732824427480914,-1.5114503816793894,-1.9312977099236641
2024-06-05T15:22:45.350058,19.071176470588238,0.17477672119140625,2.767697119140625,8.33182177734375,47.80916030534351,-1.4122137404580153,-3.8625954198473282
2024-06-05T15:22:45.356974,18.97705882352941,0.2059013427734375,2.750937707519531,8.468291271972657,47.954198473282446,-1.4427480916030535,-1.748091603053435
2024-06-05T15:22:45.363886,18.93,0.23223756103515625,2.767697119140625,8.295908752441406,47.83206106870229,-1.4427480916030535,-1.748091603053435
2024-06-05T15:22:45.370837,19.11823529411765,0.21308394775390624,2.760514514160156,8.530540515136718,47.9236641221374,-1.4198473282442747,-1.549618320610687
2024-06-05T15:22:45.377730,19.024117647058823,0.1580173095703125,2.7820623291015623,8.432378247070313,47.94656488549618,-1.3740458015267176,-1.5648854961832062
2024-06-05T15:22:45.385066,19.071176470588238,0.19632453613281248,2.8131869506835936,8.427589843749999,47.969465648854964,-1.2900763358778626,-1.534351145038168
2024-06-05T15:22:45.391987,18.97705882352941,0.19153613281249998,2.877830395507812,8.482656481933594,48.00763358778626,-1.3893129770992367,-1.3053435114503817
2024-06-05T15:22:45.398791,18.97705882352941,0.239420166015625,2.8610709838867185,8.384494213867187,48.01526717557252,-1.1374045801526718,-1.4427480916030535
2024-06-05T15:22:45.405866,19.11823529411765,0.21308394775390624,2.85388837890625,8.394071020507813,47.85496183206107,-1.4045801526717556,-1.183206106870229
2024-06-05T15:22:45.413144,19.024117647058823,0.16759411621093748,3.047818713378906,8.384494213867187,47.82442748091603,-1.282442748091603,-1.3206106870229009
2024-06-05T15:22:45.420399,19.024117647058823,0.2537853759765625,2.9448680419921875,8.329427575683594,47.86259541984733,-1.2748091603053435,-1.297709923664122
2024-06-05T15:22:45.427436,18.97705882352941,0.296881005859375,2.990357873535156,8.391676818847655,47.908396946564885,-1.3282442748091603,-1.251908396946565
2024-06-05T15:22:45.434397,19.16529411764706,0.22505495605468748,3.0142998901367184,8.2743609375,48.00763358778626,-1.4351145038167938,-1.1145038167938932
2024-06-05T15:22:45.441198,19.024117647058823,0.28490999755859375,2.9831752685546875,8.307879760742187,47.58015267175573,-1.381679389312977,-1.0916030534351144
2024-06-05T15:22:45.448544,18.97705882352941,0.3280056274414062,2.9975404785156248,8.367734802246094,47.94656488549618,-1.1984732824427482,-1.0305343511450382
2024-06-05T15:22:45.455431,19.024117647058823,0.28730419921875,3.0813375366210938,8.334215979003906,47.83206106870229,-1.282442748091603,-1.1526717557251909
2024-06-05T15:22:45.462261,19.071176470588238,0.42377369384765623,3.0334535034179684,8.549694128417968,47.55725190839695,-1.2061068702290076,-1.0
2024-06-05T15:22:45.469107,18.97705882352941,0.4333505004882812,3.105279553222656,8.413224633789062,47.45038167938932,-1.2061068702290076,-1.0229007633587786
2024-06-05T15:22:45.475921,19.024117647058823,0.37828386230468747,3.0238766967773434,8.537723120117187,47.396946564885496,-1.1221374045801527,-0.916030534351145
2024-06-05T15:22:45.483053,18.97705882352941,0.2154781494140625,2.9855694702148434,8.24802471923828,47.43511450381679,-1.0916030534351144,-1.099236641221374
2024-06-05T15:22:45.489936,18.97705882352941,0.258573779296875,2.9496564453125,8.264784130859374,47.23664122137404,-0.9618320610687023,-1.0610687022900764
2024-06-05T15:22:45.496753,19.024117647058823,0.28490999755859375,3.009511486816406,8.355763793945313,47.55725190839695,-1.2061068702290076,-1.4732824427480915
2024-06-05T15:22:45.503572,19.024117647058823,0.19632453613281248,3.0119056884765625,8.420407238769531,47.54961832061068,-1.183206106870229,-1.5954198473282444
2024-06-05T15:22:45.510394,18.97705882352941,0.2059013427734375,3.047818713378906,8.394071020507813,47.19083969465649,-1.083969465648855,-1.534351145038168
2024-06-05T15:22:45.517565,18.97705882352941,0.29448680419921874,3.066972326660156,8.410830432128906,44.954198473282446,-1.1145038167938932,-1.4961832061068703
2024-06-05T15:22:45.524415,19.071176470588238,0.26336218261718747,3.019088293457031,8.36294639892578,46.66412213740458,-1.015267175572519,-1.6488549618320612
2024-06-05T15:22:45.531226,19.071176470588238,0.23223756103515625,2.8993782104492185,8.348581188964843,46.74809160305343,-1.015267175572519,-1.9312977099236641
2024-06-05T15:22:45.538033,19.024117647058823,0.2154781494140625,2.9185318237304685,8.398859423828124,46.87786259541985,-0.9312977099236641,-1.7786259541984732
2024-06-05T15:22:45.544871,19.071176470588238,0.28490999755859375,2.8610709838867185,8.394071020507813,47.05343511450382,-1.1755725190839694,-2.0381679389312977
2024-06-05T15:22:45.552054,18.97705882352941,0.011971008300781249,2.834734765625,8.451531860351562,47.0,-1.1450381679389312,-2.0610687022900764
2024-06-05T15:22:45.558890,19.024117647058823,0.076614453125,2.935291235351562,8.353369592285155,46.954198473282446,-1.2442748091603053,-2.122137404580153
2024-06-05T15:22:45.565664,18.97705882352941,0.11731588134765625,2.887407202148437,8.398859423828124,44.94656488549618,-1.4045801526717556,-2.351145038167939
2024-06-05T15:22:45.572466,18.93,0.12210428466796874,2.808398547363281,8.346186987304687,46.656488549618324,-1.2671755725190839,-2.33587786259542
2024-06-05T15:22:45.579791,19.071176470588238,0.11252747802734374,2.6791116577148437,8.276755139160155,46.67175572519084,-1.366412213740458,-2.2519083969465647
2024-06-05T15:22:45.587029,18.97705882352941,0.1005564697265625,2.6695348510742187,8.51617530517578,46.969465648854964,-1.2213740458015268,-2.213740458015267
2024-06-05T15:22:45.593905,18.97705882352941,0.047884033203124995,2.5570073730468748,8.453926062011718,46.99236641221374,-1.2900763358778626,-2.2290076335877864
2024-06-05T15:22:45.600782,19.024117647058823,0.08140285644531249,2.4684219116210935,8.327033374023436,47.20610687022901,-1.183206106870229,-2.1374045801526718
2024-06-05T15:22:45.607579,18.97705882352941,0.0047884033203125,2.645592834472656,8.427589843749999,47.534351145038165,-1.251908396946565,-2.16793893129771
2024-06-05T15:22:45.614811,19.071176470588238,0.105344873046875,2.5737667846679684,8.367734802246094,47.29770992366412,-1.3893129770992367,-2.1603053435114505
2024-06-05T15:22:45.621767,18.97705882352941,0.2825157958984375,2.592920397949219,8.532934716796875,47.3587786259542,-1.3893129770992367,-2.2748091603053435
2024-06-05T15:22:45.628651,18.97705882352941,0.00239420166015625,2.5378537597656248,8.571241943359375,47.396946564885496,-1.4274809160305344,-0.022900763358778626
2024-06-05T15:22:45.635507,19.024117647058823,0.229843359375,2.480392919921875,8.470685473632813,47.44274809160305,-1.6564885496183206,-2.198473282442748
2024-06-05T15:22:45.642543,18.97705882352941,0.239420166015625,2.521094348144531,8.403647827148436,47.908396946564885,-1.366412213740458,-1.984732824427481
2024-06-05T15:22:45.650289,18.97705882352941,0.17238251953125,2.4588451049804685,8.441955053710936,48.06106870229008,-1.6106870229007633,-1.9694656488549618
2024-06-05T15:22:45.657236,18.97705882352941,0.17956512451171874,2.559401574707031,8.549694128417968,48.213740458015266,-1.6106870229007633,-1.786259541984733
2024-06-05T15:22:45.664312,18.93,0.258573779296875,2.6336218261718747,8.475473876953124,48.343511450381676,-1.5190839694656488,-1.8091603053435115
2024-06-05T15:22:45.671202,18.97705882352941,0.28490999755859375,2.6527754394531247,8.535328918457031,48.32824427480916,-1.3740458015267176,-1.8473282442748091
2024-06-05T15:22:45.678170,19.024117647058823,0.3327940307617187,2.6886884643554687,8.480262280273436,48.43511450381679,-1.5419847328244274,-1.6412213740458015
2024-06-05T15:22:45.685653,19.024117647058823,0.2154781494140625,2.73896669921875,8.432378247070313,48.42748091603053,-1.5725190839694656,-1.6946564885496183
2024-06-05T15:22:45.692548,18.97705882352941,0.3016694091796875,2.7198130859375,8.511386901855468,48.58015267175573,-1.3969465648854962,-1.4274809160305344
2024-06-05T15:22:45.699412,19.071176470588238,0.2657563842773437,2.808398547363281,8.389282617187499,48.42748091603053,-1.4580152671755726,-1.3587786259541985
2024-06-05T15:22:45.706257,18.93,0.2346317626953125,2.7844565307617186,8.343792785644531,48.534351145038165,-1.5572519083969465,-1.2061068702290076
2024-06-05T15:22:45.713791,18.97705882352941,0.23223756103515625,2.8802245971679685,8.267178332519531,48.770992366412216,-1.549618320610687,-1.099236641221374
2024-06-05T15:22:45.720764,19.071176470588238,0.23223756103515625,2.8993782104492185,8.43956085205078,48.70229007633588,-1.4809160305343512,-1.0687022900763359
2024-06-05T15:22:45.727674,18.93,0.181959326171875,2.923320227050781,8.37012900390625,48.587786259541986,-1.4351145038167938,-1.0458015267175573
2024-06-05T15:22:45.734569,19.024117647058823,0.24181436767578124,2.9759926635742184,8.382100012207031,48.55725190839695,-1.5725190839694656,-1.0458015267175573
2024-06-05T15:22:45.741367,19.024117647058823,0.24660277099609373,3.019088293457031,8.441955053710936,48.42748091603053,-1.5877862595419847,-1.0076335877862594
2024-06-05T15:22:45.748663,18.97705882352941,0.2609679809570312,3.0358477050781247,8.372523205566406,48.68702290076336,-1.549618320610687,-1.1221374045801527
2024-06-05T15:22:45.755580,18.97705882352941,0.3902548706054687,2.987963671875,8.470685473632813,48.13740458015267,-1.5419847328244274,-1.3358778625954197
2024-06-05T15:22:45.762473,19.024117647058823,0.20829554443359374,3.047818713378906,8.346186987304687,48.595419847328245,-1.4809160305343512,-1.3206106870229009
2024-06-05T15:22:45.769439,19.071176470588238,0.20350714111328125,3.0023288818359375,8.317456567382813,48.29007633587786,-1.4122137404580153,-1.4198473282442747
2024-06-05T15:22:45.776777,19.024117647058823,0.181959326171875,2.990357873535156,8.382100012207031,48.45038167938932,-1.3435114503816794,-1.5267175572519085
2024-06-05T15:22:45.783998,19.024117647058823,0.24181436767578124,3.057395520019531,8.315062365722655,47.83206106870229,-1.4122137404580153,-1.83206106870229
2024-06-05T15:22:45.790895,19.024117647058823,0.20829554443359374,3.0693665283203124,8.346186987304687,48.14503816793893,-1.3969465648854962,-1.83206106870229
2024-06-05T15:22:45.797720,19.11823529411765,0.20350714111328125,3.1387983764648437,8.415618835449218,47.76335877862596,-1.3893129770992367,-1.984732824427481
2024-06-05T15:22:45.804578,19.024117647058823,0.229843359375,3.1196447631835937,8.355763793945313,47.87786259541985,-1.4427480916030535,-1.83206106870229
2024-06-05T15:22:45.811471,18.97705882352941,0.28490999755859375,3.066972326660156,8.334215979003906,47.595419847328245,-1.366412213740458,-0.03816793893129771
2024-06-05T15:22:45.818851,19.024117647058823,0.2753331909179687,3.0502129150390624,8.420407238769531,47.603053435114504,-1.6870229007633588,-1.8702290076335877
2024-06-05T15:22:45.825761,19.024117647058823,0.27293898925781246,3.0023288818359375,8.350975390624999,47.48091603053435,-1.2671755725190839,-1.9312977099236641
2024-06-05T15:22:45.832591,18.97705882352941,0.25139117431640623,2.9544448486328125,8.391676818847655,47.3587786259542,-1.3511450381679388,-1.9770992366412214
2024-06-05T15:22:45.839433,19.024117647058823,0.28969840087890625,3.0526071166992184,8.29351455078125,47.33587786259542,-1.3053435114503817,-1.8778625954198473
2024-06-05T15:22:45.846727,18.93,0.4429273071289062,3.0119056884765625,8.40125362548828,46.98473282442748,-1.4580152671755726,-1.786259541984733
2024-06-05T15:22:45.853771,18.93,0.32561142578124996,2.920926025390625,8.403647827148436,47.29007633587786,-1.4274809160305344,-1.9694656488549618
2024-06-05T15:22:45.860619,18.97705882352941,0.33758243408203126,2.9544448486328125,8.415618835449218,47.030534351145036,-1.2442748091603053,-1.7099236641221374
2024-06-05T15:22:45.867437,18.93,0.3016694091796875,2.959233251953125,8.530540515136718,47.213740458015266,-1.0687022900763359,-1.6488549618320612
2024-06-05T15:22:45.874204,19.024117647058823,0.3184288208007812,2.7581203125,8.398859423828124,47.038167938931295,-1.3435114503816794,-1.8625954198473282
2024-06-05T15:22:45.881609,19.024117647058823,0.28490999755859375,2.849099975585937,8.458714465332031,46.94656488549618,-1.16793893129771,-1.8702290076335877
2024-06-05T15:22:45.888524,19.024117647058823,0.28730419921875,2.935291235351562,8.36294639892578,47.02290076335878,-1.2748091603053435,-1.7328244274809161
2024-06-05T15:22:45.895393,18.97705882352941,0.3280056274414062,2.85388837890625,8.377311608886718,47.05343511450382,-1.0763358778625953,-1.8396946564885497
2024-06-05T15:22:45.902283,19.024117647058823,0.29448680419921874,2.906560815429687,8.382100012207031,47.030534351145036,-1.0305343511450382,-1.7404580152671756
2024-06-05T15:22:45.909151,19.024117647058823,0.29927520751953124,2.8802245971679685,8.44674345703125,46.97709923664122,-1.0076335877862594,-1.6717557251908397
2024-06-05T15:22:45.916413,19.071176470588238,0.20829554443359374,2.91134921875,8.418013037109375,46.83969465648855,-1.183206106870229,-1.6564885496183206
2024-06-05T15:22:45.923346,19.024117647058823,0.2561795776367187,2.9041666137695312,8.425195642089843,47.038167938931295,-1.0458015267175573,-1.7404580152671756
2024-06-05T15:22:45.930225,19.11823529411765,0.2059013427734375,2.8131869506835936,8.379705810546875,46.900763358778626,-1.083969465648855,-1.5725190839694656
2024-06-05T15:22:45.937076,19.024117647058823,0.27293898925781246,2.89219560546875,8.384494213867187,47.06106870229008,-0.8625954198473282,-1.5954198473282444
2024-06-05T15:22:45.943935,19.024117647058823,0.16519991455078123,2.868253588867187,8.451531860351562,47.083969465648856,-0.9465648854961832,-1.4885496183206106
2024-06-05T15:22:45.951204,18.97705882352941,0.00239420166015625,2.858676782226562,8.427589843749999,47.0,-1.0076335877862594,-1.3740458015267176
2024-06-05T15:22:45.958101,18.93,0.28490999755859375,2.8419173706054686,8.391676818847655,46.87022900763359,-1.213740458015267,-1.0534351145038168
2024-06-05T15:22:45.964921,18.97705882352941,0.16759411621093748,2.923320227050781,8.312668164062499,46.88549618320611,-1.1603053435114503,-1.1755725190839694
2024-06-05T15:22:45.971765,19.024117647058823,0.15562310791015624,2.863465185546875,8.360552197265624,46.81679389312977,-1.2671755725190839,-1.1297709923664123
2024-06-05T15:22:45.980131,18.882941176470588,0.13407529296874998,2.8131869506835936,8.482656481933594,47.25190839694657,-1.1374045801526718,-1.366412213740458
2024-06-05T15:22:45.987196,18.97705882352941,0.0,2.887407202148437,8.283937744140625,47.02290076335878,-1.3053435114503817,-1.2366412213740459
2024-06-05T15:22:45.994265,18.93,0.16759411621093748,2.7198130859375,8.365340600585936,46.81679389312977,-1.1526717557251909,-1.3358778625954197
2024-06-05T15:22:46.001143,18.97705882352941,0.02633621826171875,2.8993782104492185,8.415618835449218,47.14503816793893,-1.1145038167938932,-1.6488549618320612
2024-06-05T15:22:46.007934,19.024117647058823,0.21068974609375,2.6862942626953124,8.377311608886718,46.786259541984734,-1.2366412213740459,-1.6488549618320612
2024-06-05T15:22:46.015266,19.071176470588238,0.21787235107421873,2.7269956909179687,8.475473876953124,47.02290076335878,-1.3053435114503817,-1.6106870229007633
2024-06-05T15:22:46.022205,18.97705882352941,0.21308394775390624,2.6431986328124997,8.525752111816406,47.18320610687023,-1.251908396946565,-1.6946564885496183
2024-06-05T15:22:46.029206,19.16529411764706,0.19632453613281248,2.6479870361328124,8.499415893554687,47.13740458015267,-1.3129770992366412,-1.7786259541984732
2024-06-05T15:22:46.036115,18.97705882352941,0.18435352783203124,2.693476867675781,8.427589843749999,47.458015267175576,-1.2442748091603053,-1.8396946564885497
2024-06-05T15:22:46.043132,18.93,0.19153613281249998,2.7150246826171873,8.48505068359375,47.229007633587784,-1.3206106870229009,-1.8015267175572518
2024-06-05T15:22:46.050546,19.024117647058823,0.22744915771484372,2.7198130859375,8.444349255371094,47.50381679389313,-1.3511450381679388,-1.7251908396946565
2024-06-05T15:22:46.057522,18.882941176470588,0.181959326171875,2.703053674316406,8.374917407226562,47.656488549618324,-1.2748091603053435,-1.534351145038168
2024-06-05T15:22:46.064510,18.93,0.16280571289062498,2.70065947265625,8.341398583984375,47.70229007633588,-1.183206106870229,-1.4198473282442747
2024-06-05T15:22:46.071547,19.16529411764706,0.0430956298828125,2.703053674316406,8.300697155761718,47.49618320610687,-1.1297709923664123,-1.2900763358778626
2024-06-05T15:22:46.078494,18.97705882352941,0.15562310791015624,2.703053674316406,8.513781103515624,48.030534351145036,-1.3282442748091603,-1.1221374045801527
2024-06-05T15:22:46.085896,19.11823529411765,0.1867477294921875,2.7365724975585937,8.413224633789062,47.969465648854964,-1.3206106870229009,-1.0610687022900764
2024-06-05T15:22:46.092915,18.97705882352941,0.19153613281249998,2.710236279296875,8.365340600585936,48.038167938931295,-1.3282442748091603,-1.3358778625954197
2024-06-05T15:22:46.099832,19.024117647058823,0.181959326171875,2.731784094238281,8.379705810546875,47.93129770992366,-1.4274809160305344,-1.2671755725190839
2024-06-05T15:22:46.106662,19.024117647058823,0.16041151123046873,2.741360900878906,8.2743609375,47.69465648854962,-1.2671755725190839,-1.381679389312977
2024-06-05T15:22:46.113997,18.97705882352941,0.2825157958984375,2.6767174560546874,8.394071020507813,48.00763358778626,-1.1908396946564885,-1.5954198473282444
2024-06-05T15:22:46.120937,18.97705882352941,0.28490999755859375,2.674323254394531,8.487444885253906,48.02290076335878,-1.4809160305343512,-1.8931297709923665
2024-06-05T15:22:46.128042,18.93,0.21068974609375,2.6599580444335937,8.51617530517578,47.93129770992366,-1.4885496183206106,-2.0076335877862594
2024-06-05T15:22:46.137597,18.97705882352941,0.20350714111328125,2.578555187988281,8.317456567382813,48.3206106870229,-1.5572519083969465,-2.114503816793893
2024-06-05T15:22:46.148239,18.97705882352941,0.1149216796875,2.829946362304687,8.355763793945313,48.465648854961835,-1.465648854961832,-2.312977099236641
2024-06-05T15:22:46.159265,19.024117647058823,-0.05746083984375,2.808398547363281,8.427589843749999,48.267175572519086,-1.9312977099236641,-2.099236641221374
2024-06-05T15:22:46.170293,18.97705882352941,0.277727392578125,2.7198130859375,8.532934716796875,47.74809160305343,-1.5190839694656488,-2.0610687022900764
2024-06-05T15:22:46.180996,19.071176470588238,0.32561142578124996,2.7820623291015623,8.312668164062499,48.43511450381679,-1.4580152671755726,-1.8778625954198473
2024-06-05T15:22:46.192249,19.024117647058823,0.18914193115234373,2.7365724975585937,8.391676818847655,48.33587786259542,-1.5267175572519085,-1.5419847328244274
2024-06-05T15:22:46.202939,19.16529411764706,0.20350714111328125,2.942473840332031,8.305485559082031,48.66412213740458,-1.3893129770992367,-1.0458015267175573
2024-06-05T15:22:46.213706,19.024117647058823,0.23223756103515625,3.071760729980469,8.28633194580078,48.603053435114504,-1.5954198473282444,-0.8473282442748091
2024-06-05T15:22:46.224791,19.11823529411765,0.031124621582031248,3.143586779785156,8.305485559082031,47.969465648854964,-1.7938931297709924,-1.213740458015267
2024-06-05T15:22:46.234488,19.024117647058823,0.3687070556640625,3.066972326660156,8.449137658691406,47.465648854961835,-1.282442748091603,-0.8396946564885496
2024-06-05T15:22:46.241664,18.93,0.3711012573242187,2.9089550170898435,8.43956085205078,48.0,-1.3587786259541985,-0.6946564885496184
2024-06-05T15:22:46.249120,19.071176470588238,0.3112462158203125,2.877830395507812,8.374917407226562,48.18320610687023,-1.213740458015267,-0.6183206106870229
2024-06-05T15:22:46.256207,18.93,0.28012159423828126,2.9185318237304685,8.317456567382813,48.17557251908397,-1.3206106870229009,-0.7557251908396947
2024-06-05T15:22:46.263272,18.93,0.411802685546875,2.9664158569335934,8.40843623046875,48.52671755725191,-1.5114503816793894,-1.2595419847328244
2024-06-05T15:22:46.270246,18.97705882352941,0.40222587890625,3.0166940917968748,8.279149340820313,48.213740458015266,-1.366412213740458,-1.4351145038167938
2024-06-05T15:22:46.277182,19.024117647058823,0.3806780639648437,2.980781066894531,8.427589843749999,47.786259541984734,-1.2061068702290076,-1.3969465648854962
2024-06-05T15:22:46.284567,19.024117647058823,0.42377369384765623,3.0166940917968748,8.475473876953124,47.51908396946565,-1.297709923664122,-1.5572519083969465
2024-06-05T15:22:46.291606,19.071176470588238,0.21787235107421873,3.038241906738281,8.468291271972657,47.2442748091603,-1.297709923664122,-1.8778625954198473
2024-06-05T15:22:46.298414,18.93,0.2920926025390625,3.0334535034179684,8.427589843749999,47.47328244274809,-1.183206106870229,-2.236641221374046
2024-06-05T15:22:46.305282,19.071176470588238,0.19153613281249998,2.942473840332031,8.365340600585936,47.69465648854962,-1.4427480916030535,-2.33587786259542
2024-06-05T15:22:46.312682,19.024117647058823,0.21068974609375,2.7940333374023436,8.276755139160155,47.54961832061068,-1.282442748091603,-2.183206106870229
2024-06-05T15:22:46.319806,19.024117647058823,0.27293898925781246,2.8945898071289062,8.336610180664062,47.603053435114504,-1.3740458015267176,-2.1297709923664123
2024-06-05T15:22:46.326689,19.11823529411765,0.22505495605468748,2.959233251953125,8.360552197265624,47.2442748091603,-1.4198473282442747,-1.9312977099236641
2024-06-05T15:22:46.333535,18.97705882352941,0.2825157958984375,3.0358477050781247,8.434772448730468,47.534351145038165,-1.381679389312977,-2.2213740458015265
2024-06-05T15:22:46.340314,19.071176470588238,0.27293898925781246,2.9855694702148434,8.389282617187499,47.396946564885496,-1.1984732824427482,-2.427480916030534
2024-06-05T15:22:46.347712,18.97705882352941,0.201112939453125,2.925714428710937,8.504204296874999,47.274809160305345,-1.16793893129771,-2.068702290076336
2024-06-05T15:22:46.354606,19.071176470588238,0.1771709228515625,2.9975404785156248,8.350975390624999,47.213740458015266,-1.1145038167938932,-1.6946564885496183
2024-06-05T15:22:46.361546,19.071176470588238,0.17238251953125,2.987963671875,8.295908752441406,47.13740458015267,-1.1984732824427482,-3.885496183206107
2024-06-05T15:22:46.368526,19.071176470588238,0.16759411621093748,2.9831752685546875,8.365340600585936,46.85496183206107,-1.2213740458015268,-1.8396946564885497
2024-06-05T15:22:46.375338,18.93,0.2537853759765625,2.913743420410156,8.415618835449218,47.36641221374046,-1.3893129770992367,-1.9541984732824427
2024-06-05T15:22:46.382837,19.11823529411765,0.2609679809570312,2.932897033691406,8.40843623046875,47.30534351145038,-1.297709923664122,-1.534351145038168
2024-06-05T15:22:46.389730,19.024117647058823,0.25139117431640623,2.9496564453125,8.377311608886718,47.045801526717554,-1.083969465648855,-1.5648854961832062
2024-06-05T15:22:46.396750,19.071176470588238,0.28730419921875,2.935291235351562,8.322244970703125,46.778625954198475,-1.1908396946564885,-1.4427480916030535
2024-06-05T15:22:46.403625,18.93,0.229843359375,2.901772412109375,8.40843623046875,46.89312977099237,-1.2442748091603053,-1.4351145038167938
2024-06-05T15:22:46.410501,18.97705882352941,0.28490999755859375,2.935291235351562,8.348581188964843,46.969465648854964,-1.2671755725190839,-1.5572519083969465
2024-06-05T15:22:46.417781,18.93,0.296881005859375,2.9759926635742184,8.355763793945313,48.70992366412214,-0.9465648854961832,-1.5725190839694656
2024-06-05T15:22:46.424675,19.024117647058823,0.22026655273437498,2.8131869506835936,8.410830432128906,46.969465648854964,-1.0229007633587786,-1.16793893129771
2024-06-05T15:22:46.431494,18.97705882352941,0.16759411621093748,2.839523168945312,8.475473876953124,46.94656488549618,-1.2366412213740459,-1.2366412213740459
2024-06-05T15:22:46.438340,18.93,0.34237083740234375,2.9855694702148434,8.384494213867187,47.05343511450382,-1.1068702290076335,-1.2442748091603053
2024-06-05T15:22:46.445457,18.97705882352941,0.35194764404296874,2.9855694702148434,8.29351455078125,47.14503816793893,-1.1374045801526718,-1.2900763358778626
2024-06-05T15:22:46.452778,19.024117647058823,0.2920926025390625,2.779668127441406,8.32463917236328,47.19083969465649,-1.0305343511450382,-1.1755725190839694
2024-06-05T15:22:46.459680,19.024117647058823,0.2346317626953125,3.0621839233398433,8.281543542480469,46.44274809160305,-0.8396946564885496,-1.0305343511450382
2024-06-05T15:22:46.466533,19.071176470588238,0.19871873779296872,2.8993782104492185,8.279149340820313,46.64885496183206,-0.8091603053435115,-0.9312977099236641
2024-06-05T15:22:46.473338,19.024117647058823,0.229843359375,2.942473840332031,8.398859423828124,46.587786259541986,-1.0381679389312977,-0.8473282442748091
2024-06-05T15:22:46.480535,19.024117647058823,0.16998831787109375,2.7748797241210936,8.279149340820313,44.961832061068705,-1.16793893129771,-1.1908396946564885
2024-06-05T15:22:46.487482,19.024117647058823,0.1771709228515625,2.73896669921875,8.391676818847655,47.0763358778626,-1.1908396946564885,-1.213740458015267
2024-06-05T15:22:46.494362,19.024117647058823,0.21068974609375,2.7964275390625,8.33182177734375,47.091603053435115,-1.1297709923664123,-0.9847328244274809
2024-06-05T15:22:46.501243,19.16529411764706,0.1771709228515625,2.8323405639648436,8.444349255371094,48.778625954198475,-1.1068702290076335,-0.8549618320610687
2024-06-05T15:22:46.508048,19.024117647058823,0.296881005859375,2.8203695556640622,8.374917407226562,46.88549618320611,-1.2061068702290076,-1.0916030534351144
2024-06-05T15:22:46.515272,19.024117647058823,0.2154781494140625,2.8898014038085935,8.37012900390625,46.770992366412216,-1.015267175572519,-1.3893129770992367
2024-06-05T15:22:46.522196,18.93,0.13646949462890623,2.5570073730468748,8.415618835449218,46.847328244274806,-1.3587786259541985,-1.7099236641221374
2024-06-05T15:22:46.529084,19.071176470588238,0.16998831787109375,2.602497204589844,8.52335791015625,47.38167938931298,-1.2442748091603053,-1.786259541984733
2024-06-05T15:22:46.535971,19.071176470588238,0.2609679809570312,2.518700146484375,8.463502868652343,47.2442748091603,-1.1908396946564885,-2.0381679389312977
2024-06-05T15:22:46.542800,19.11823529411765,0.0718260498046875,2.300827795410156,8.492233288574218,47.213740458015266,-1.465648854961832,-2.183206106870229
2024-06-05T15:22:46.550047,19.024117647058823,0.05027823486328125,2.482787121582031,8.48505068359375,47.41984732824427,-1.3969465648854962,-2.519083969465649
2024-06-05T15:22:46.556987,19.024117647058823,0.11731588134765625,2.5258827514648434,8.480262280273436,47.83969465648855,-1.5572519083969465,-2.6564885496183206
2024-06-05T15:22:46.563836,19.071176470588238,0.16519991455078123,2.540247961425781,8.530540515136718,47.58015267175573,-1.3587786259541985,-2.7480916030534353
2024-06-05T15:22:46.570702,18.97705882352941,0.14604630126953125,2.4899697265625,8.444349255371094,47.732824427480914,-1.4122137404580153,-2.66412213740458
2024-06-05T15:22:46.577574,18.93,0.06464344482421874,2.5450363647460934,8.288726147460936,47.54961832061068,-1.4198473282442747,-2.450381679389313
2024-06-05T15:22:46.584846,19.071176470588238,0.16519991455078123,2.602497204589844,8.367734802246094,48.14503816793893,-1.5267175572519085,-2.099236641221374
2024-06-05T15:22:46.591757,19.024117647058823,0.1867477294921875,2.6408044311523438,8.420407238769531,48.19083969465649,-1.5419847328244274,-2.1526717557251906
2024-06-05T15:22:46.598575,19.071176470588238,0.12210428466796874,2.8562825805664063,8.44674345703125,48.16793893129771,-1.4961832061068703,-3.8473282442748094
2024-06-05T15:22:46.605419,19.024117647058823,0.181959326171875,2.6815058593749996,8.434772448730468,48.13740458015267,-1.5190839694656488,-1.7251908396946565
2024-06-05T15:22:46.612699,19.024117647058823,0.22266075439453123,2.77727392578125,8.420407238769531,48.48091603053435,-1.5725190839694656,-1.0610687022900764
2024-06-05T15:22:46.619843,19.11823529411765,0.28730419921875,2.96881005859375,8.434772448730468,48.36641221374046,-1.0916030534351144,-0.9618320610687023
2024-06-05T15:22:46.626730,19.024117647058823,0.3495534423828125,3.076549133300781,8.322244970703125,48.343511450381676,-1.16793893129771,-0.6946564885496184
2024-06-05T15:22:46.633613,19.071176470588238,0.15322890625,2.990357873535156,8.298302954101562,48.12213740458015,-1.3740458015267176,-0.37404580152671757
2024-06-05T15:22:46.640414,19.024117647058823,0.1580173095703125,2.7964275390625,8.288726147460936,47.80916030534351,-1.251908396946565,-0.16030534351145037
2024-06-05T15:22:46.647986,18.882941176470588,0.411802685546875,2.8610709838867185,8.341398583984375,48.274809160305345,-1.3129770992366412,0.05343511450381679
2024-06-05T15:22:46.654891,18.97705882352941,0.3447650390625,2.923320227050781,8.360552197265624,48.56488549618321,-1.3129770992366412,-0.2900763358778626
2024-06-05T15:22:46.661777,19.024117647058823,0.16041151123046873,2.925714428710937,8.40843623046875,48.74809160305343,-1.2366412213740459,-0.48854961832061067
2024-06-05T15:22:46.668675,19.024117647058823,0.25139117431640623,2.9496564453125,8.458714465332031,48.717557251908396,-1.450381679389313,-0.3893129770992366
2024-06-05T15:22:46.675507,19.024117647058823,0.239420166015625,3.0980969482421874,8.341398583984375,47.93893129770992,-1.183206106870229,-0.2824427480916031
2024-06-05T15:22:46.683019,18.97705882352941,0.33518823242187495,3.1675287963867187,8.334215979003906,47.66412213740458,-1.1908396946564885,-0.26717557251908397
2024-06-05T15:22:46.689951,18.97705882352941,0.28969840087890625,3.1651345947265623,8.188169677734374,47.534351145038165,-1.1526717557251909,-0.46564885496183206
2024-06-05T15:22:46.697011,19.024117647058823,0.21308394775390624,3.1842882080078123,8.312668164062499,47.19083969465649,-1.2595419847328244,-0.6259541984732825
2024-06-05T15:22:46.703921,18.93,0.16280571289062498,2.952050646972656,8.204929089355469,47.656488549618324,-1.4351145038167938,-0.7938931297709924
2024-06-05T15:22:46.710812,18.97705882352941,0.16998831787109375,2.978386865234375,8.298302954101562,47.87786259541985,-1.297709923664122,-0.35877862595419846
2024-06-05T15:22:46.718147,18.93,0.24899697265624998,3.0430303100585934,8.319850769042969,47.85496183206107,-1.2671755725190839,-0.2366412213740458
2024-06-05T15:22:46.725250,19.071176470588238,0.22026655273437498,3.086125939941406,8.32463917236328,47.48091603053435,-1.2748091603053435,-0.22137404580152673
2024-06-05T15:22:46.732058,18.93,0.3016694091796875,3.1603461914062496,8.353369592285155,47.13740458015267,-1.0534351145038168,-0.45038167938931295
2024-06-05T15:22:46.738914,19.071176470588238,0.28730419921875,3.1411925781249996,8.532934716796875,47.01526717557252,-1.099236641221374,-0.4351145038167939
2024-06-05T15:22:46.746592,19.024117647058823,0.2346317626953125,2.9975404785156248,8.295908752441406,46.847328244274806,-0.9770992366412213,-0.3053435114503817
2024-06-05T15:22:46.753646,19.024117647058823,0.24181436767578124,2.9376854370117185,8.410830432128906,46.778625954198475,-1.0610687022900764,-0.5725190839694656
2024-06-05T15:22:46.760738,18.97705882352941,0.22026655273437498,2.9089550170898435,8.382100012207031,48.83206106870229,-1.2061068702290076,-0.6793893129770993
2024-06-05T15:22:46.767608,19.024117647058823,0.2059013427734375,3.0621839233398433,8.379705810546875,47.06870229007634,-1.3282442748091603,-0.9007633587786259
2024-06-05T15:22:46.774392,19.071176470588238,0.22026655273437498,2.952050646972656,8.358157995605469,47.11450381679389,-1.1755725190839694,-1.1068702290076335
2024-06-05T15:22:46.781904,19.024117647058823,0.21787235107421873,2.877830395507812,8.341398583984375,46.725190839694655,-1.083969465648855,-1.0381679389312977
2024-06-05T15:22:46.788792,19.071176470588238,0.34237083740234375,2.839523168945312,8.463502868652343,46.3587786259542,-1.0916030534351144,-1.2213740458015268
2024-06-05T15:22:46.795605,19.024117647058823,0.3399766357421875,2.767697119140625,8.434772448730468,46.37404580152672,-1.0305343511450382,-1.4045801526717556
2024-06-05T15:22:46.802548,19.024117647058823,0.28490999755859375,2.779668127441406,8.458714465332031,46.7557251908397,-1.1450381679389312,-1.4274809160305344
2024-06-05T15:22:46.809431,19.024117647058823,0.40462008056640625,2.7341782958984373,8.480262280273436,48.83206106870229,-1.1374045801526718,-1.4427480916030535
2024-06-05T15:22:46.818009,18.97705882352941,0.2537853759765625,2.6767174560546874,8.427589843749999,44.954198473282446,-1.0687022900763359,-1.4351145038167938
2024-06-05T15:22:46.824929,19.11823529411765,0.26336218261718747,2.7653029174804686,8.36294639892578,46.94656488549618,-0.9465648854961832,-1.5572519083969465
2024-06-05T15:22:46.831755,18.97705882352941,0.1771709228515625,2.7916391357421872,8.413224633789062,48.847328244274806,-1.083969465648855,-1.1450381679389312
2024-06-05T15:22:46.838592,19.024117647058823,0.00239420166015625,2.7940333374023436,8.573636145019531,46.87786259541985,-1.297709923664122,-1.366412213740458
2024-06-05T15:22:46.845842,19.024117647058823,0.2609679809570312,2.7629087158203123,8.398859423828124,48.83969465648855,-1.3587786259541985,-1.6564885496183206
2024-06-05T15:22:46.852961,18.93,0.15322890625,2.664746447753906,8.429984045410155,47.02290076335878,-1.1450381679389312,-1.5648854961832062
