date/time,gyro_x,gyro_y,gyro_z,accel_x,accel_y,accel_z,x,y
2024-06-05 15:22:41.443142,48.02290076335878,-1.4732824427480915,-1.5114503816793894,0.21068974609375,2.729389892578125,8.451531860351562,216.79196046084587,134.2864101174568
2024-06-05 15:22:41.450472,47.9236641221374,-1.5038167938931295,-1.4351145038167938,0.1939303344726562,2.801215942382812,8.453926062011718,216.79196046084587,134.2864101174568
2024-06-05 15:22:41.457621,48.02290076335878,-1.2290076335877862,-1.3969465648854962,0.2418143676757812,2.655169641113281,8.537723120117187,216.79196046084587,134.2864101174568
2024-06-05 15:22:41.464728,48.09160305343512,-1.5419847328244274,-1.5572519083969465,0.2154781494140625,2.829946362304687,8.29351455078125,216.79196046084587,134.2864101174568
2024-06-05 15:22:41.472047,48.22900763358778,-1.5801526717557253,-1.5419847328244274,0.1963245361328124,2.844311572265625,8.418013037109375,216.79196046084587,134.2864101174568
2024-06-05 15:22:41.479194,47.847328244274806,-1.2290076335877862,-1.4961832061068705,0.0646434448242187,2.794033337402344,8.386888415527343,216.79196046084587,134.2864101174568
2024-06-05 15:22:41.486535,48.083969465648856,-1.3282442748091603,-1.5648854961832062,0.201112939453125,2.885013000488281,8.339004382324218,216.79196046084587,134.2864101174568
2024-06-05 15:22:41.493577,47.93893129770992,-1.2442748091603053,-1.5801526717557253,0.2849099975585937,2.8706477905273435,8.449137658691406,216.79196046084587,134.2864101174568
2024-06-05 15:22:41.500552,47.88549618320611,-1.366412213740458,-1.5954198473282444,0.1987187377929687,2.8275521606445317,8.279149340820313,216.79196046084587,134.2864101174568
2024-06-05 15:22:41.507781,48.12213740458015,-1.4427480916030535,-1.5877862595419847,0.2418143676757812,2.839523168945312,8.37012900390625,216.79196046084587,134.2864101174568
2024-06-05 15:22:41.514892,47.93129770992366,-1.3053435114503815,-1.5801526717557253,0.2346317626953125,2.817975354003906,8.432378247070313,216.79196046084587,134.2864101174568
2024-06-05 15:22:41.521843,47.89312977099237,-1.2900763358778626,-1.5419847328244274,0.2489969726562499,2.801215942382812,8.418013037109375,216.79196046084587,134.2864101174568
2024-06-05 15:22:41.528806,48.03053435114504,-1.4885496183206106,-1.549618320610687,0.2274491577148437,2.91134921875,8.465897070312499,216.79196046084587,134.2864101174568
2024-06-05 15:22:41.535762,47.86259541984733,-1.5954198473282444,-1.4885496183206106,0.2346317626953125,2.8754361938476563,8.365340600585936,216.79196046084587,134.2864101174568
2024-06-05 15:22:41.542773,47.954198473282446,-1.4045801526717556,-1.6259541984732824,0.1651999145507812,2.8945898071289062,8.40843623046875,216.79196046084587,134.2864101174568
2024-06-05 15:22:41.549708,47.93893129770992,-1.3893129770992367,-1.6106870229007633,0.2178723510742187,2.9089550170898435,8.32463917236328,216.79196046084587,134.2864101174568
2024-06-05 15:22:41.556649,47.82442748091603,-1.2595419847328244,-1.6946564885496185,0.21068974609375,2.8802245971679685,8.415618835449218,216.79196046084587,134.2864101174568
2024-06-05 15:22:41.563605,48.0,-1.4732824427480915,-1.6106870229007633,0.2633621826171874,2.8706477905273435,8.470685473632813,216.79196046084587,134.2864101174568
2024-06-05 15:22:41.570800,47.96946564885496,-1.381679389312977,-1.4580152671755726,0.2489969726562499,2.877830395507812,8.40125362548828,216.79196046084587,134.2864101174568
2024-06-05 15:22:41.577835,47.61068702290076,-1.3129770992366412,-1.6488549618320612,0.2250549560546874,2.9185318237304685,8.391676818847655,216.79196046084587,134.2864101174568
2024-06-05 15:22:41.584779,47.90076335877863,-1.3358778625954195,-1.549618320610687,0.2082955444335937,2.925714428710937,8.425195642089843,216.79196046084587,134.2864101174568
2024-06-05 15:22:41.591755,47.56488549618321,-1.450381679389313,-1.4885496183206106,0.21068974609375,2.7581203125,8.420407238769531,216.79196046084587,134.2864101174568
2024-06-05 15:22:41.598738,47.6030534351145,-1.282442748091603,-1.4961832061068705,0.2609679809570312,2.7964275390625,8.573636145019531,216.79196046084587,134.2864101174568
2024-06-05 15:22:41.605709,47.79389312977099,-1.2290076335877862,-1.549618320610687,0.2896984008789062,2.8730419921875,8.346186987304687,216.79196046084587,134.2864101174568
2024-06-05 15:22:41.612682,47.57251908396947,-1.282442748091603,-1.5190839694656488,0.277727392578125,2.961627453613281,8.394071020507813,216.79196046084587,134.2864101174568
2024-06-05 15:22:41.619605,47.58778625954199,-1.3129770992366412,-1.549618320610687,0.2657563842773437,2.789244934082031,8.384494213867187,216.79196046084587,134.2864101174568
2024-06-05 15:22:41.626579,47.61832061068702,-1.1145038167938932,-1.6259541984732824,0.2920926025390625,2.959233251953125,8.525752111816406,216.79196046084587,134.2864101174568
2024-06-05 15:22:41.633570,47.6030534351145,-1.3893129770992367,-1.3893129770992367,0.2370259643554687,2.932897033691406,8.427589843749999,216.79196046084587,134.2864101174568
2024-06-05 15:22:41.640486,47.61832061068702,-1.3053435114503815,-1.5801526717557253,0.1915361328124999,2.966415856933593,8.434772448730468,216.79196046084587,134.2864101174568
2024-06-05 15:22:41.647603,47.52671755725191,-1.3511450381679388,-1.6870229007633588,0.2609679809570312,2.959233251953125,8.360552197265624,216.79196046084587,134.2864101174568
2024-06-05 15:22:41.654754,47.63358778625954,-1.3587786259541983,-1.5954198473282444,0.239420166015625,2.9089550170898435,8.461108666992187,216.79196046084587,134.2864101174568
2024-06-05 15:22:41.661843,47.6412213740458,-1.1221374045801529,-1.4961832061068705,0.2130839477539062,2.9568390502929685,8.365340600585936,216.79196046084587,134.2864101174568
2024-06-05 15:22:41.668710,47.40458015267176,-1.1221374045801529,-1.6641221374045805,0.2250549560546874,2.935291235351562,8.425195642089843,216.79196046084587,134.2864101174568
2024-06-05 15:22:41.675628,47.25190839694657,-1.3893129770992367,-1.534351145038168,0.2753331909179687,2.9831752685546875,8.396465222167969,216.79196046084587,134.2864101174568
2024-06-05 15:22:41.682562,47.35114503816794,-1.282442748091603,-1.618320610687023,0.258573779296875,2.8275521606445317,8.350975390624999,216.79196046084587,134.2864101174568
2024-06-05 15:22:41.689479,47.34351145038168,-1.1603053435114503,-1.6564885496183206,0.2059013427734375,2.9041666137695312,8.367734802246094,216.79196046084587,134.2864101174568
2024-06-05 15:22:41.696389,47.51145038167939,-1.236641221374046,-1.6793893129770991,0.3016694091796875,2.868253588867187,8.350975390624999,216.79196046084587,134.2864101174568
2024-06-05 15:22:41.703322,47.25954198473283,-1.183206106870229,-1.5648854961832062,0.2442085693359375,2.9185318237304685,8.396465222167969,216.79196046084587,134.2864101174568
2024-06-05 15:22:41.710246,47.3587786259542,-1.0534351145038168,-1.732824427480916,0.2489969726562499,2.832340563964844,8.37012900390625,216.79196046084587,134.2864101174568
2024-06-05 15:22:41.717185,47.16793893129771,-1.236641221374046,-1.5801526717557253,0.1963245361328124,2.882618798828125,8.336610180664062,216.79196046084587,134.2864101174568
2024-06-05 15:22:41.724119,47.2442748091603,-1.3893129770992367,-1.8549618320610688,0.1556231079101562,2.8658593872070317,8.391676818847655,216.79196046084587,134.2864101174568
2024-06-05 15:22:41.731065,47.12213740458015,-1.3358778625954195,-1.4961832061068705,0.2250549560546874,2.849099975585937,8.374917407226562,216.79196046084587,134.2864101174568
2024-06-05 15:22:41.738004,47.35114503816794,-1.267175572519084,-1.618320610687023,0.1987187377929687,2.7964275390625,8.391676818847655,216.79196046084587,134.2864101174568
2024-06-05 15:22:41.744995,46.99236641221374,-1.16793893129771,-1.6030534351145038,0.1987187377929687,2.877830395507812,8.427589843749999,216.79196046084587,134.2864101174568
2024-06-05 15:22:41.751934,47.50381679389313,-1.3740458015267176,-1.5114503816793894,0.2705447875976562,2.85388837890625,8.398859423828124,216.79196046084587,134.2864101174568
2024-06-05 15:22:41.758932,47.1526717557252,-1.2748091603053435,-1.6106870229007633,0.2753331909179687,2.801215942382812,8.279149340820313,216.79196046084587,134.2864101174568
2024-06-05 15:22:41.765920,47.396946564885496,-1.366412213740458,-1.5725190839694656,0.2274491577148437,2.789244934082031,8.468291271972657,216.79196046084587,134.2864101174568
2024-06-05 15:22:41.772916,47.37404580152672,-1.3969465648854962,-1.618320610687023,0.2035071411132812,2.779668127441406,8.374917407226562,216.79196046084587,134.2864101174568
2024-06-05 15:22:41.779900,47.36641221374046,-1.366412213740458,-1.5725190839694656,0.181959326171875,2.8371289672851563,8.391676818847655,216.79196046084587,134.2864101174568
2024-06-05 15:22:41.786860,47.40458015267176,-1.3587786259541983,-1.6412213740458017,0.2202665527343749,2.7533319091796877,8.379705810546875,216.79196046084587,134.2864101174568
2024-06-05 15:22:41.793815,47.54198473282442,-1.2748091603053435,-1.5648854961832062,0.2466027709960937,2.839523168945312,8.360552197265624,216.79196046084587,134.2864101174568
2024-06-05 15:22:41.800739,47.27480916030535,-1.3053435114503815,-1.5801526717557253,0.2154781494140625,2.789244934082031,8.350975390624999,216.79196046084587,134.2864101174568
2024-06-05 15:22:41.807745,47.44274809160305,-1.2442748091603053,-1.549618320610687,0.1699883178710937,2.8131869506835936,8.437166650390624,216.79196046084587,134.2864101174568
2024-06-05 15:22:41.814676,47.38167938931298,-1.2061068702290076,-1.5877862595419847,0.2154781494140625,2.7461493041992187,8.341398583984375,216.79196046084587,134.2864101174568
2024-06-05 15:22:41.821632,47.43511450381679,-1.5725190839694656,-1.6946564885496185,0.1628057128906249,2.750937707519531,8.334215979003906,216.79196046084587,134.2864101174568
2024-06-05 15:22:41.828616,47.48091603053435,-1.3511450381679388,-1.5114503816793894,0.1843535278320312,2.779668127441406,8.398859423828124,216.79196046084587,134.2864101174568
2024-06-05 15:22:41.835529,47.47328244274809,-1.1297709923664123,-1.5190839694656488,0.2250549560546874,2.7844565307617186,8.537723120117187,216.79196046084587,134.2864101174568
2024-06-05 15:22:41.842419,47.33587786259542,-1.2748091603053435,-1.5190839694656488,0.1867477294921875,2.7844565307617186,8.310273962402343,216.79196046084587,134.2864101174568
2024-06-05 15:22:41.849348,47.48854961832061,-1.4351145038167938,-1.4961832061068705,0.1699883178710937,2.7581203125,8.441955053710936,216.79196046084587,134.2864101174568
2024-06-05 15:22:41.856294,47.56488549618321,-1.5572519083969465,-1.5954198473282444,0.21068974609375,2.7916391357421872,8.420407238769531,216.79196046084587,134.2864101174568
2024-06-05 15:22:41.863241,47.63358778625954,-1.4198473282442747,-1.4351145038167938,0.1843535278320312,2.8227637573242186,8.441955053710936,216.79196046084587,134.2864101174568
2024-06-05 15:22:41.870150,47.65648854961832,-1.2290076335877862,-1.3893129770992367,0.1963245361328124,2.7964275390625,8.463502868652343,216.79196046084587,134.2864101174568
2024-06-05 15:22:41.877095,47.51145038167939,-1.4122137404580153,-1.4580152671755726,0.2035071411132812,2.7269956909179687,8.47786807861328,216.79196046084587,134.2864101174568
2024-06-05 15:22:41.884333,47.41984732824427,-1.5114503816793894,-1.6488549618320612,0.2059013427734375,2.7629087158203123,8.525752111816406,216.79196046084587,134.2864101174568
2024-06-05 15:22:41.891360,47.54961832061068,-1.4045801526717556,-1.6717557251908397,0.1843535278320312,2.729389892578125,8.418013037109375,216.79196046084587,134.2864101174568
2024-06-05 15:22:41.898322,47.74809160305343,-1.3969465648854962,-1.5572519083969465,0.2178723510742187,2.612074011230469,8.425195642089843,216.79196046084587,134.2864101174568
2024-06-05 15:22:41.905312,47.81679389312977,-1.2595419847328244,-1.633587786259542,0.2082955444335937,2.7844565307617186,8.511386901855468,216.79196046084587,134.2864101174568
2024-06-05 15:22:41.912316,47.70229007633588,-1.2595419847328244,-1.6564885496183206,0.2059013427734375,2.8945898071289062,8.444349255371094,216.79196046084587,134.2864101174568
2024-06-05 15:22:41.919381,47.770992366412216,-1.366412213740458,-1.4961832061068705,0.1915361328124999,2.7198130859375,8.374917407226562,216.79196046084587,134.2864101174568
2024-06-05 15:22:41.926314,47.77862595419848,-1.2290076335877862,-1.748091603053435,0.1987187377929687,2.779668127441406,8.276755139160155,216.79196046084587,134.2864101174568
2024-06-05 15:22:41.933449,47.847328244274806,-1.3511450381679388,-1.763358778625954,0.1987187377929687,2.6288334228515624,8.520963708496094,216.79196046084587,134.2864101174568
2024-06-05 15:22:41.940590,47.96183206106871,-1.3129770992366412,-1.6488549618320612,0.1891419311523437,2.817975354003906,8.432378247070313,216.79196046084587,134.2864101174568
2024-06-05 15:22:41.947548,47.83206106870229,-1.236641221374046,-1.5648854961832062,0.1987187377929687,2.741360900878906,8.348581188964843,216.79196046084587,134.2864101174568
2024-06-05 15:22:41.954494,47.80152671755725,-1.465648854961832,-1.5954198473282444,0.2082955444335937,2.767697119140625,8.449137658691406,216.79196046084587,134.2864101174568
2024-06-05 15:22:41.961444,47.954198473282446,-1.381679389312977,-1.6870229007633588,0.2274491577148437,2.779668127441406,8.461108666992187,216.79196046084587,134.2864101174568
2024-06-05 15:22:41.968474,47.96946564885496,-1.465648854961832,-1.702290076335878,0.2418143676757812,2.806004345703125,8.384494213867187,216.79196046084587,134.2864101174568
2024-06-05 15:22:41.975610,48.02290076335878,-1.366412213740458,-1.6870229007633588,0.1628057128906249,2.7964275390625,8.367734802246094,216.79196046084587,134.2864101174568
2024-06-05 15:22:41.982695,47.96946564885496,-1.5648854961832062,-1.702290076335878,0.2202665527343749,2.7724855224609373,8.382100012207031,216.79196046084587,134.2864101174568
2024-06-05 15:22:41.989631,48.16030534351145,-1.4961832061068705,-1.786259541984733,0.1843535278320312,2.81558115234375,8.377311608886718,216.79196046084587,134.2864101174568
2024-06-05 15:22:41.996539,47.99236641221374,-1.236641221374046,-1.6030534351145038,0.2250549560546874,2.858676782226562,8.327033374023436,216.79196046084587,134.2864101174568
2024-06-05 15:22:42.003501,48.40458015267176,-1.4961832061068705,-1.4809160305343512,0.258573779296875,2.832340563964844,8.422801440429687,216.79196046084587,134.2864101174568
2024-06-05 15:22:42.010411,48.16030534351145,-1.4885496183206106,-1.366412213740458,0.2250549560546874,2.896984008789062,8.360552197265624,216.79196046084587,134.2864101174568
2024-06-05 15:22:42.017346,47.9236641221374,-1.3053435114503815,-1.4732824427480915,0.229843359375,2.9544448486328125,8.410830432128906,216.79196046084587,134.2864101174568
2024-06-05 15:22:42.024248,47.96946564885496,-1.3893129770992367,-1.3740458015267176,0.201112939453125,2.8706477905273435,8.341398583984375,216.79196046084587,134.2864101174568
2024-06-05 15:22:42.031141,47.908396946564885,-1.450381679389313,-1.3740458015267176,0.2609679809570312,2.966415856933593,8.37012900390625,216.79196046084587,134.2864101174568
2024-06-05 15:22:42.038113,47.88549618320611,-1.381679389312977,-1.3969465648854962,0.2370259643554687,2.978386865234375,8.281543542480469,216.79196046084587,134.2864101174568
2024-06-05 15:22:42.045219,47.82442748091603,-1.366412213740458,-1.366412213740458,0.2561795776367187,3.201047619628906,8.501810095214843,216.79196046084587,134.2864101174568
2024-06-05 15:22:42.052266,47.89312977099237,-1.2442748091603053,-1.267175572519084,0.239420166015625,3.0358477050781247,8.32463917236328,216.79196046084587,134.2864101174568
2024-06-05 15:22:42.059227,47.81679389312977,-1.4198473282442747,-1.0916030534351144,0.3088520141601562,3.0358477050781247,8.360552197265624,216.79196046084587,134.2864101174568
2024-06-05 15:22:42.066171,47.58778625954199,-1.16793893129771,-1.3053435114503815,0.36391865234375,2.9568390502929685,8.382100012207031,216.79196046084587,134.2864101174568
2024-06-05 15:22:42.073120,47.37404580152672,-1.2748091603053435,-1.2748091603053435,0.1795651245117187,2.9951462768554684,8.29351455078125,216.79196046084587,134.2864101174568
2024-06-05 15:22:42.080070,47.37404580152672,-1.534351145038168,-1.2900763358778626,0.0550666381835937,2.935291235351562,8.315062365722655,216.79196046084587,134.2864101174568
2024-06-05 15:22:42.086998,47.64885496183206,-1.297709923664122,-1.5725190839694656,0.2250549560546874,2.8945898071289062,8.398859423828124,216.79196046084587,134.2864101174568
2024-06-05 15:22:42.093953,47.51145038167939,-1.5190839694656488,-1.8244274809160304,0.2250549560546874,3.028665100097656,8.432378247070313,216.79196046084587,134.2864101174568
2024-06-05 15:22:42.100901,47.48091603053435,-1.4580152671755726,-1.9465648854961832,0.2466027709960937,2.7246014892578123,8.468291271972657,216.79196046084587,134.2864101174568
2024-06-05 15:22:42.107826,47.534351145038165,-1.3740458015267176,-2.351145038167939,0.373495458984375,2.906560815429687,8.583212951660157,216.79196046084587,134.2864101174568
2024-06-05 15:22:42.114806,47.47328244274809,-1.1603053435114503,-2.6717557251908395,0.3519476440429687,2.7748797241210936,8.489839086914062,216.79196046084587,134.2864101174568
2024-06-05 15:22:42.121774,47.63358778625954,-1.2900763358778626,-2.931297709923664,0.258573779296875,2.810792749023437,8.377311608886718,216.79196046084587,134.2864101174568
2024-06-05 15:22:42.128696,47.50381679389313,-1.4274809160305344,-3.137404580152672,0.1149216796875,2.877830395507812,8.398859423828124,216.79196046084587,134.2864101174568
2024-06-05 15:22:42.135625,47.47328244274809,-1.6870229007633588,-3.381679389312977,0.1005564697265625,2.7844565307617186,8.391676818847655,216.79196046084587,134.2864101174568
2024-06-05 15:22:42.142593,47.13740458015267,-1.7709923664122138,-3.236641221374046,0.2801215942382812,2.801215942382812,8.432378247070313,216.79196046084587,134.2864101174568
2024-06-05 15:22:42.149719,47.00763358778626,-1.786259541984733,-2.969465648854962,0.28730419921875,2.748543505859375,8.497021691894531,216.79196046084587,134.2864101174568
2024-06-05 15:22:42.156772,47.19083969465649,-1.5038167938931295,-2.954198473282443,0.3926490722656249,2.7581203125,8.288726147460936,216.79196046084587,134.2864101174568
2024-06-05 15:22:42.163955,47.70229007633588,-1.297709923664122,-2.7099236641221376,0.3399766357421875,2.73896669921875,8.429984045410155,216.79196046084587,134.2864101174568
2024-06-05 15:22:42.171119,47.786259541984734,-1.2442748091603053,-2.206106870229008,0.354341845703125,2.801215942382812,8.456320263671875,216.79196046084587,134.2864101174568
2024-06-05 15:22:42.178001,48.06106870229008,-1.1450381679389312,-3.908396946564885,0.28730419921875,2.868253588867187,8.506598498535157,216.79196046084587,134.2864101174568
2024-06-05 15:22:42.185122,47.93893129770992,-1.1526717557251909,-1.5954198473282444,0.1340752929687499,3.0047230834960934,8.348581188964843,216.79196046084587,134.2864101174568
2024-06-05 15:22:42.192048,47.595419847328245,-1.2290076335877862,-1.183206106870229,0.0167594116210937,3.0837317382812497,8.2743609375,216.79196046084587,134.2864101174568
2024-06-05 15:22:42.199003,47.46564885496184,-1.183206106870229,-1.0,0.1268926879882812,3.040636108398437,8.2360537109375,216.79196046084587,134.2864101174568
2024-06-05 15:22:42.205967,47.54198473282442,-1.5190839694656488,-0.9083969465648856,-0.0071826049804687,3.0142998901367184,8.343792785644531,216.79196046084587,134.2864101174568
2024-06-05 15:22:42.213141,47.55725190839695,-1.5267175572519085,-0.5572519083969466,0.0430956298828125,3.057395520019531,8.425195642089843,216.79196046084587,134.2864101174568
2024-06-05 15:22:42.220576,47.595419847328245,-1.4961832061068705,-0.5877862595419847,0.1364694946289062,2.810792749023437,8.449137658691406,216.79196046084587,134.2864101174568
2024-06-05 15:22:42.227490,47.87786259541985,-1.2290076335877862,-0.7480916030534351,0.2561795776367187,2.73896669921875,8.475473876953124,216.79196046084587,134.2864101174568
2024-06-05 15:22:42.234365,47.91603053435114,-1.068702290076336,-0.8625954198473282,0.3064578125,2.7269956909179687,8.449137658691406,216.79196046084587,134.2864101174568
2024-06-05 15:22:42.241292,47.7557251908397,-1.1603053435114503,-1.2748091603053435,0.2609679809570312,2.710236279296875,8.429984045410155,216.79196046084587,134.2864101174568
2024-06-05 15:22:42.248312,47.61832061068702,-1.0305343511450382,-1.6946564885496185,0.2992752075195312,2.712630480957031,8.456320263671875,216.79196046084587,134.2864101174568
2024-06-05 15:22:42.255375,47.63358778625954,-1.534351145038168,-0.0916030534351145,0.1915361328124999,2.729389892578125,8.281543542480469,216.79196046084587,134.2864101174568
2024-06-05 15:22:42.262249,47.57251908396947,-1.6030534351145038,-2.236641221374046,0.17238251953125,2.7844565307617186,8.434772448730468,216.79196046084587,134.2864101174568
2024-06-05 15:22:42.269103,47.86259541984733,-1.3587786259541983,-2.3587786259541983,0.3471592407226562,2.806004345703125,8.384494213867187,216.79196046084587,134.2864101174568
2024-06-05 15:22:42.275866,47.82442748091603,-1.3511450381679388,-1.938931297709924,0.229843359375,2.920926025390625,8.379705810546875,216.79196046084587,134.2864101174568
2024-06-05 15:22:42.282608,47.33587786259542,-1.3969465648854962,-1.8244274809160304,0.2705447875976562,3.0358477050781247,8.40843623046875,216.79196046084587,134.2864101174568
2024-06-05 15:22:42.289351,47.54198473282442,-1.3969465648854962,-1.618320610687023,0.21068974609375,2.9855694702148434,8.374917407226562,216.79196046084587,134.2864101174568
2024-06-05 15:22:42.296125,47.37404580152672,-1.1908396946564883,-1.5725190839694656,0.3351882324218749,2.9927520751953125,8.350975390624999,216.79196046084587,134.2864101174568
2024-06-05 15:22:42.303080,47.47328244274809,-1.1984732824427482,-1.0534351145038168,0.3878606689453124,2.9831752685546875,8.470685473632813,216.79196046084587,134.2864101174568
2024-06-05 15:22:42.309952,47.52671755725191,-1.1450381679389312,-0.6793893129770993,0.3591302490234375,2.9544448486328125,8.384494213867187,216.79196046084587,134.2864101174568
2024-06-05 15:22:42.316728,47.93893129770992,-1.1450381679389312,-0.366412213740458,0.3184288208007812,2.9568390502929685,8.394071020507813,216.79196046084587,134.2864101174568
2024-06-05 15:22:42.323500,47.7175572519084,-1.068702290076336,-0.3969465648854962,0.3088520141601562,3.0166940917968748,8.374917407226562,216.79196046084587,134.2864101174568
2024-06-05 15:22:42.330263,47.81679389312977,-1.099236641221374,-0.5725190839694656,0.1675941162109374,3.040636108398437,8.492233288574218,216.79196046084587,134.2864101174568
2024-06-05 15:22:42.337012,47.595419847328245,-1.282442748091603,-0.7709923664122137,0.316034619140625,2.999934680175781,8.382100012207031,216.79196046084587,134.2864101174568
2024-06-05 15:22:42.343790,47.23664122137404,-1.1526717557251909,-0.7709923664122137,0.2442085693359375,2.978386865234375,8.418013037109375,216.79196046084587,134.2864101174568
2024-06-05 15:22:42.350537,47.19083969465649,-1.282442748091603,-0.6870229007633588,0.2250549560546874,2.8945898071289062,8.532934716796875,216.79196046084587,134.2864101174568
2024-06-05 15:22:42.357321,47.1526717557252,-1.0916030534351144,-1.0610687022900764,0.3112462158203125,2.806004345703125,8.434772448730468,216.79196046084587,134.2864101174568
2024-06-05 15:22:42.364079,47.11450381679389,-1.213740458015267,-1.3358778625954195,0.2442085693359375,2.8371289672851563,8.413224633789062,216.79196046084587,134.2864101174568
2024-06-05 15:22:42.370879,47.396946564885496,-1.1068702290076335,-1.5954198473282444,0.2633621826171874,2.779668127441406,8.44674345703125,216.79196046084587,134.2864101174568
2024-06-05 15:22:42.377978,47.40458015267176,-1.3053435114503815,-1.8931297709923665,0.201112939453125,2.6384102294921874,8.453926062011718,216.79196046084587,134.2864101174568
2024-06-05 15:22:42.384784,47.2824427480916,-1.2290076335877862,-2.0381679389312977,0.1771709228515625,2.750937707519531,8.372523205566406,216.79196046084587,134.2864101174568
2024-06-05 15:22:42.391556,47.27480916030535,-1.0229007633587786,-2.137404580152672,0.2035071411132812,2.794033337402344,8.339004382324218,216.79196046084587,134.2864101174568
2024-06-05 15:22:42.398320,46.90076335877863,-1.1450381679389312,-2.3206106870229006,0.1292868896484375,2.849099975585937,8.346186987304687,216.79196046084587,134.2864101174568
2024-06-05 15:22:42.405553,47.10687022900763,-1.3282442748091603,-2.206106870229008,0.0885854614257812,2.8610709838867185,8.449137658691406,216.79196046084587,134.2864101174568
2024-06-05 15:22:42.412969,47.23664122137404,-1.251908396946565,-2.106870229007633,0.1580173095703125,2.8036101440429686,8.530540515136718,216.79196046084587,134.2864101174568
2024-06-05 15:22:42.419811,47.31297709923664,-1.297709923664122,-1.786259541984733,0.1101332763671874,2.8036101440429686,8.418013037109375,216.79196046084587,134.2864101174568
2024-06-05 15:22:42.426598,47.17557251908397,-1.282442748091603,-1.5572519083969465,0.1508347045898437,2.786850732421875,8.427589843749999,216.79196046084587,134.2864101174568
2024-06-05 15:22:42.433820,47.16793893129771,-1.2213740458015268,-1.4885496183206106,0.1244984863281249,2.825157958984375,8.360552197265624,216.79196046084587,134.2864101174568
2024-06-05 15:22:42.440733,47.40458015267176,-1.1374045801526718,-1.5725190839694656,0.1651999145507812,2.6096798095703124,8.360552197265624,216.79196046084587,134.2864101174568
2024-06-05 15:22:42.447728,47.70229007633588,-1.3740458015267176,-1.5267175572519085,0.2226607543945312,2.7078420776367187,8.312668164062499,216.79196046084587,134.2864101174568
2024-06-05 15:22:42.454522,47.595419847328245,-1.267175572519084,-1.6106870229007633,0.17238251953125,2.8467057739257813,8.556876733398436,216.79196046084587,134.2864101174568
2024-06-05 15:22:42.461393,47.6030534351145,-1.4427480916030535,-1.450381679389313,0.1939303344726562,2.6623522460937497,8.513781103515624,216.79196046084587,134.2864101174568
2024-06-05 15:22:42.468456,47.43511450381679,-1.366412213740458,-1.465648854961832,0.2130839477539062,2.683900061035156,8.29351455078125,216.79196046084587,134.2864101174568
2024-06-05 15:22:42.475261,47.70229007633588,-1.236641221374046,-1.6870229007633588,0.229843359375,2.681505859375,8.573636145019531,216.79196046084587,134.2864101174568
2024-06-05 15:22:42.482454,47.74809160305343,-1.4732824427480915,-1.763358778625954,0.229843359375,2.7150246826171878,8.566453540039062,216.79196046084587,134.2864101174568
2024-06-05 15:22:42.489517,47.57251908396947,-1.1908396946564883,-1.6259541984732824,0.239420166015625,2.73896669921875,8.566453540039062,216.79196046084587,134.2864101174568
2024-06-05 15:22:42.496312,47.54961832061068,-1.3511450381679388,-1.4809160305343512,0.2226607543945312,2.858676782226562,8.348581188964843,216.79196046084587,134.2864101174568
2024-06-05 15:22:42.503156,47.81679389312977,-1.4351145038167938,-1.6412213740458017,0.1604115112304687,2.717418884277344,8.497021691894531,216.8033039095477,134.2864101174568
2024-06-05 15:22:42.510090,47.93129770992366,-1.2442748091603053,-1.3053435114503815,0.4141968872070312,2.607285607910156,8.432378247070313,216.8033039095477,134.2864101174568
2024-06-05 15:22:42.517025,47.89312977099237,-1.2061068702290076,-1.3511450381679388,0.2346317626953125,2.8275521606445317,8.418013037109375,216.8033039095477,134.2864101174568
2024-06-05 15:22:42.523836,47.80916030534351,-1.3358778625954195,-1.2442748091603053,0.1963245361328124,2.81558115234375,8.394071020507813,216.8033039095477,134.2864101174568
2024-06-05 15:22:42.531013,47.76335877862596,-1.3587786259541983,-1.1221374045801529,0.296881005859375,2.839523168945312,8.571241943359375,216.8033039095477,134.2864101174568
2024-06-05 15:22:42.537868,48.00763358778626,-1.465648854961832,-0.9465648854961832,0.2681505859374999,2.8754361938476563,8.36294639892578,216.8033039095477,134.2864101174568
2024-06-05 15:22:42.544727,48.00763358778626,-1.3587786259541983,-0.6641221374045801,0.2178723510742187,2.9089550170898435,8.350975390624999,216.8033039095477,134.2864101174568
2024-06-05 15:22:42.551558,48.06106870229008,-1.2595419847328244,-0.816793893129771,0.229843359375,3.0238766967773434,8.37012900390625,216.8033039095477,134.2864101174568
2024-06-05 15:22:42.558549,47.69465648854962,-1.4122137404580153,-0.8854961832061069,0.2370259643554687,2.877830395507812,8.365340600585936,216.8033039095477,134.2864101174568
2024-06-05 15:22:42.565317,48.083969465648856,-1.251908396946565,-0.9465648854961832,0.201112939453125,2.889801403808593,8.434772448730468,216.8033039095477,134.2864101174568
2024-06-05 15:22:42.572152,47.88549618320611,-1.381679389312977,-1.2442748091603053,0.2801215942382812,2.8754361938476563,8.36294639892578,216.8033039095477,134.2864101174568
2024-06-05 15:22:42.579181,47.79389312977099,-1.2061068702290076,-1.267175572519084,0.181959326171875,2.887407202148437,8.470685473632813,216.8033039095477,134.2864101174568
2024-06-05 15:22:42.585994,47.70229007633588,-1.4045801526717556,-1.549618320610687,0.17238251953125,2.89219560546875,8.40125362548828,216.8033039095477,134.2864101174568
2024-06-05 15:22:42.592765,47.61832061068702,-1.3893129770992367,-1.748091603053435,0.1580173095703125,2.885013000488281,8.410830432128906,216.8033039095477,134.2864101174568
2024-06-05 15:22:42.599608,47.82442748091603,-1.6106870229007633,-1.8778625954198476,0.2346317626953125,2.928108630371093,8.568847741699217,216.8033039095477,134.2864101174568
2024-06-05 15:22:42.606464,47.49618320610687,-1.4732824427480915,-1.916030534351145,0.2513911743164062,2.940079638671875,8.336610180664062,216.8033039095477,134.2864101174568
2024-06-05 15:22:42.614452,47.786259541984734,-1.1450381679389312,-0.0305343511450381,0.2178723510742187,2.964021655273437,8.281543542480469,216.8033039095477,134.2864101174568
2024-06-05 15:22:42.621570,47.49618320610687,-1.3206106870229009,-2.0,0.2633621826171874,2.952050646972656,8.391676818847655,216.8033039095477,134.2864101174568
2024-06-05 15:22:42.628486,47.20610687022901,-1.3893129770992367,-1.702290076335878,0.2346317626953125,3.0334535034179684,8.540117321777343,216.8033039095477,134.2864101174568
2024-06-05 15:22:42.635540,47.43511450381679,-1.183206106870229,-1.534351145038168,0.2609679809570312,2.9472622436523435,8.288726147460936,216.8033039095477,134.2864101174568
2024-06-05 15:22:42.642433,47.2824427480916,-1.1984732824427482,-1.5267175572519085,0.2537853759765625,2.987963671875,8.437166650390624,216.8033039095477,134.2864101174568
2024-06-05 15:22:42.650285,47.43511450381679,-1.3358778625954195,-1.282442748091603,0.2035071411132812,3.002328881835937,8.374917407226562,216.8033039095477,134.2864101174568
2024-06-05 15:22:42.657411,47.58015267175573,-1.1297709923664123,-1.3435114503816794,0.2346317626953125,2.93050283203125,8.303091357421874,216.8033039095477,134.2864101174568
2024-06-05 15:22:42.664588,47.44274809160305,-1.2290076335877862,-1.0229007633587786,0.2513911743164062,2.9185318237304685,8.463502868652343,216.8033039095477,134.2864101174568
2024-06-05 15:22:42.671595,47.36641221374046,-1.1450381679389312,-1.1526717557251909,0.239420166015625,2.9735984619140625,8.403647827148436,216.8033039095477,134.2864101174568
2024-06-05 15:22:42.679530,47.25954198473283,-1.4045801526717556,-1.1526717557251909,0.2250549560546874,2.896984008789062,8.420407238769531,216.8033039095477,134.2864101174568
2024-06-05 15:22:42.686712,47.50381679389313,-1.465648854961832,-1.3358778625954195,0.2130839477539062,2.9089550170898435,8.360552197265624,216.8033039095477,134.2864101174568
2024-06-05 15:22:42.693655,47.045801526717554,-1.534351145038168,-1.5877862595419847,0.2322375610351562,2.964021655273437,8.303091357421874,216.8033039095477,134.2864101174568
2024-06-05 15:22:42.700845,47.2824427480916,-1.2213740458015268,-1.7251908396946565,0.3615244506835937,2.868253588867187,8.449137658691406,216.8033039095477,134.2864101174568
2024-06-05 15:22:42.707797,47.47328244274809,-1.3435114503816794,-1.5877862595419847,0.3471592407226562,2.906560815429687,8.475473876953124,216.8033039095477,134.2864101174568
2024-06-05 15:22:42.716266,47.23664122137404,-1.5648854961832062,-1.8396946564885497,0.1795651245117187,2.85388837890625,8.425195642089843,216.8033039095477,134.2864101174568
2024-06-05 15:22:42.723277,47.267175572519086,-1.083969465648855,-2.213740458015267,0.2920926025390625,2.832340563964844,8.40843623046875,216.8033039095477,134.2864101174568
2024-06-05 15:22:42.730168,47.48854961832061,-1.1297709923664123,-2.427480916030534,0.2633621826171874,2.7581203125,8.339004382324218,216.8033039095477,134.2864101174568
2024-06-05 15:22:42.737187,47.46564885496184,-1.4580152671755726,-2.045801526717557,0.0957680664062499,2.7078420776367187,8.355763793945313,216.8033039095477,134.2864101174568
2024-06-05 15:22:42.744463,47.412213740458014,-1.3053435114503815,-2.137404580152672,0.0,2.7246014892578123,8.40125362548828,216.8033039095477,134.2864101174568
2024-06-05 15:22:42.751865,47.25190839694657,-1.183206106870229,-2.0381679389312977,0.1556231079101562,2.722207287597656,8.410830432128906,216.8033039095477,134.2864101174568
2024-06-05 15:22:42.758809,47.74809160305343,-1.3893129770992367,-1.801526717557252,0.1867477294921875,2.559401574707031,8.499415893554687,216.8033039095477,134.2864101174568
2024-06-05 15:22:42.765725,48.083969465648856,-1.16793893129771,-1.4732824427480915,0.2154781494140625,2.5953145996093747,8.468291271972657,216.8033039095477,134.2864101174568
2024-06-05 15:22:42.772636,47.88549618320611,-1.4122137404580153,-1.5190839694656488,0.1197100830078125,2.6288334228515624,8.44674345703125,216.8033039095477,134.2864101174568
2024-06-05 15:22:42.779709,47.93893129770992,-1.3435114503816794,-1.3053435114503815,0.0646434448242187,2.60489140625,8.36294639892578,216.8033039095477,134.2864101174568
2024-06-05 15:22:42.787035,48.20610687022901,-1.2442748091603053,-1.5190839694656488,0.2849099975585937,2.717418884277344,8.55448253173828,216.8033039095477,134.2864101174568
2024-06-05 15:22:42.793959,48.36641221374046,-1.4274809160305344,-1.099236641221374,0.1628057128906249,2.5857377929687497,8.432378247070313,216.8033039095477,134.2864101174568
2024-06-05 15:22:42.800889,48.16793893129771,-1.381679389312977,-0.7938931297709924,0.0598550415039062,2.501940734863281,8.453926062011718,216.8033039095477,134.2864101174568
2024-06-05 15:22:42.807795,48.36641221374046,-1.4732824427480915,-0.5343511450381679,0.0981622680664062,2.5234885498046875,8.566453540039062,216.8033039095477,134.2864101174568
2024-06-05 15:22:42.815406,48.55725190839695,-1.3893129770992367,-0.5190839694656488,0.1460463012695312,2.6312276245117188,8.377311608886718,216.8033039095477,134.2864101174568
2024-06-05 15:22:42.822332,48.7175572519084,-1.2213740458015268,-0.3816793893129771,0.2274491577148437,2.7341782958984373,8.497021691894531,216.8033039095477,134.2864101174568
2024-06-05 15:22:42.829261,48.70992366412214,-1.2748091603053435,-0.1908396946564885,0.2226607543945312,2.789244934082031,8.552088330078124,216.8033039095477,134.2864101174568
2024-06-05 15:22:42.836325,48.58015267175573,-1.3358778625954195,0.0381679389312977,0.1628057128906249,2.7820623291015623,8.406042028808594,216.8033039095477,134.2864101174568
2024-06-05 15:22:42.843565,48.6030534351145,-1.4580152671755726,0.3206106870229007,0.258573779296875,2.89219560546875,8.406042028808594,216.8033039095477,134.2864101174568
2024-06-05 15:22:42.851545,48.74045801526717,-1.3511450381679388,0.465648854961832,0.2705447875976562,2.928108630371093,8.374917407226562,216.8033039095477,134.2864101174568
2024-06-05 15:22:42.858475,49.06106870229008,-1.3740458015267176,0.7557251908396947,0.3088520141601562,3.071760729980469,7.953537915039062,216.8033039095477,134.2864101174568
2024-06-05 15:22:42.865337,50.80152671755725,-1.4580152671755726,0.7786259541984732,0.2633621826171874,2.849099975585937,8.32463917236328,216.8033039095477,134.2864101174568
2024-06-05 15:22:42.872704,48.64885496183206,-1.2900763358778626,1.1221374045801529,0.2466027709960937,3.1268273681640624,8.544905725097657,216.8033039095477,134.2864101174568
2024-06-05 15:22:42.880086,48.98473282442748,-1.3206106870229009,1.4198473282442747,0.3902548706054687,2.978386865234375,8.346186987304687,216.8033039095477,134.2864101174568
2024-06-05 15:22:42.887357,48.83969465648855,-1.2900763358778626,1.5267175572519085,0.181959326171875,2.923320227050781,8.307879760742187,216.8033039095477,134.2864101174568
2024-06-05 15:22:42.894264,48.48091603053435,-1.2442748091603053,1.3740458015267176,0.3830722656249999,2.9759926635742184,8.386888415527343,216.8033039095477,134.2864101174568
2024-06-05 15:22:42.901301,48.85496183206107,-1.2595419847328244,1.465648854961832,0.1675941162109374,2.920926025390625,8.394071020507813,216.8033039095477,134.2864101174568
2024-06-05 15:22:42.908111,48.51145038167939,-1.1908396946564883,1.8396946564885497,0.2513911743164062,2.9041666137695312,8.367734802246094,216.8033039095477,134.2864101174568
2024-06-05 15:22:42.915757,48.80916030534351,-1.4732824427480915,1.6106870229007633,0.2513911743164062,2.889801403808593,8.358157995605469,216.8033039095477,134.2864101174568
2024-06-05 15:22:42.922692,48.27480916030535,-1.1755725190839694,1.465648854961832,0.2920926025390625,3.0071172851562498,8.372523205566406,216.8033039095477,134.2864101174568
2024-06-05 15:22:42.929883,48.76335877862596,-1.1603053435114503,1.4122137404580153,0.1580173095703125,2.9041666137695312,8.374917407226562,216.8033039095477,134.2864101174568
2024-06-05 15:22:42.937199,48.55725190839695,-1.0229007633587786,1.465648854961832,0.3256114257812499,3.0358477050781247,8.382100012207031,216.8033039095477,134.2864101174568
2024-06-05 15:22:42.944477,48.58015267175573,-1.1984732824427482,1.4045801526717556,0.239420166015625,2.961627453613281,8.420407238769531,216.8033039095477,134.2864101174568
2024-06-05 15:22:42.951834,48.57251908396947,-1.297709923664122,1.4580152671755726,0.2729389892578124,2.9496564453125,8.410830432128906,216.8033039095477,134.2864101174568
2024-06-05 15:22:42.958933,48.29770992366412,-1.3053435114503815,1.2061068702290076,0.2250549560546874,2.916137622070312,8.415618835449218,216.8033039095477,134.2864101174568
2024-06-05 15:22:42.965727,48.50381679389313,-1.1526717557251909,1.2061068702290076,0.1867477294921875,2.940079638671875,8.353369592285155,216.8033039095477,134.2864101174568
2024-06-05 15:22:42.972526,48.045801526717554,-1.3358778625954195,1.1374045801526718,0.1675941162109374,3.0358477050781247,8.339004382324218,216.8033039095477,134.2864101174568
2024-06-05 15:22:42.979534,47.98473282442748,-0.9083969465648856,0.9389312977099236,0.2082955444335937,2.9041666137695312,8.422801440429687,216.8033039095477,134.2864101174568
2024-06-05 15:22:42.986802,48.09160305343512,-1.251908396946565,0.931297709923664,0.2729389892578124,2.91134921875,8.489839086914062,216.8033039095477,134.2864101174568
2024-06-05 15:22:42.993755,48.17557251908397,-1.3435114503816794,0.5725190839694656,0.1963245361328124,2.935291235351562,8.501810095214843,216.8033039095477,134.2864101174568
2024-06-05 15:22:43.000862,48.22900763358778,-1.236641221374046,0.4503816793893129,0.2609679809570312,2.868253588867187,8.2743609375,216.8033039095477,134.2864101174568
2024-06-05 15:22:43.007679,47.93893129770992,-1.1374045801526718,0.2213740458015267,0.2322375610351562,2.8610709838867185,8.429984045410155,216.8033039095477,134.2864101174568
2024-06-05 15:22:43.016120,47.97709923664122,-1.1526717557251909,0.0305343511450381,0.2561795776367187,2.8945898071289062,8.391676818847655,216.8033039095477,134.2864101174568
2024-06-05 15:22:43.023163,47.74045801526717,-1.1068702290076335,-0.3053435114503817,0.277727392578125,2.91134921875,8.415618835449218,216.8033039095477,134.2864101174568
2024-06-05 15:22:43.030134,47.7557251908397,-1.183206106870229,-0.5648854961832062,0.277727392578125,2.9376854370117185,8.499415893554687,216.8033039095477,134.2864101174568
2024-06-05 15:22:43.037156,47.7557251908397,-1.0381679389312977,-0.9618320610687024,0.229843359375,2.8945898071289062,8.520963708496094,216.8033039095477,134.2864101174568
2024-06-05 15:22:43.044257,47.56488549618321,-0.9847328244274808,-1.236641221374046,0.15322890625,2.89219560546875,8.544905725097657,216.8033039095477,134.2864101174568
2024-06-05 15:22:43.051991,47.57251908396947,-1.282442748091603,-1.5572519083969465,0.3136404174804687,2.916137622070312,8.449137658691406,216.8033039095477,134.2864101174568
2024-06-05 15:22:43.058980,47.22900763358778,-1.2442748091603053,-2.0839694656488548,0.1843535278320312,2.60489140625,9.02135185546875,216.8033039095477,134.2864101174568
2024-06-05 15:22:43.065860,46.7175572519084,-1.702290076335878,-2.3053435114503817,0.0670376464843749,3.134009973144531,8.444349255371094,216.8033039095477,134.2864101174568
2024-06-05 15:22:43.073002,46.90076335877863,-1.3053435114503815,-2.7099236641221376,0.3878606689453124,2.9376854370117185,8.374917407226562,216.8033039095477,134.2864101174568
2024-06-05 15:22:43.080388,46.81679389312977,-1.7251908396946565,-2.885496183206107,0.2681505859374999,3.2345664428710936,8.13310303955078,216.8033039095477,134.2864101174568
2024-06-05 15:22:43.087590,46.6412213740458,-1.4580152671755726,-3.33587786259542,0.3447650390625,3.2321722412109373,8.245630517578125,216.8033039095477,134.2864101174568
2024-06-05 15:22:43.094721,47.2442748091603,-0.8778625954198473,-3.549618320610687,0.5602431884765625,2.834734765625,8.456320263671875,216.8033039095477,134.2864101174568
2024-06-05 15:22:43.101656,47.46564885496184,-1.4809160305343512,-3.427480916030534,0.277727392578125,3.0454245117187497,8.322244970703125,216.8033039095477,134.2864101174568
2024-06-05 15:22:43.108444,46.68702290076336,-3.885496183206107,-4.106870229007634,0.0694318481445312,3.2561142578125,8.341398583984375,216.8033039095477,134.2864101174568
2024-06-05 15:22:43.116263,46.49618320610687,-1.2061068702290076,-4.7251908396946565,0.4501099121093749,3.0502129150390624,8.298302954101562,216.8033039095477,134.2864101174568
2024-06-05 15:22:43.123189,46.19083969465649,-1.1145038167938932,-4.778625954198473,0.47884033203125,3.0789433349609374,8.379705810546875,216.8033039095477,134.2864101174568
2024-06-05 15:22:43.130197,45.9236641221374,-1.702290076335878,-4.595419847328245,0.0933738647460937,3.0502129150390624,8.281543542480469,216.8033039095477,134.2864101174568
2024-06-05 15:22:43.137461,46.3587786259542,-1.3206106870229009,-5.099236641221374,0.258573779296875,2.7198130859375,8.425195642089843,216.8033039095477,134.2864101174568
2024-06-05 15:22:43.145238,46.23664122137404,-1.5801526717557253,-5.801526717557252,0.2226607543945312,2.89219560546875,8.312668164062499,216.8033039095477,134.2864101174568
2024-06-05 15:22:43.152573,46.44274809160305,-1.8091603053435117,-5.7251908396946565,0.1508347045898437,2.906560815429687,8.394071020507813,216.8033039095477,134.2864101174568
2024-06-05 15:22:43.159525,46.458015267175576,-1.4045801526717556,-5.564885496183206,0.2681505859374999,2.896984008789062,8.372523205566406,216.8033039095477,134.2864101174568
2024-06-05 15:22:43.166348,46.12213740458015,-1.6412213740458017,-5.984732824427481,0.2657563842773437,2.810792749023437,8.348581188964843,216.8033039095477,134.2864101174568
2024-06-05 15:22:43.173440,45.76335877862596,-1.717557251908397,-6.1603053435114505,0.1628057128906249,2.868253588867187,8.44674345703125,216.8033039095477,134.2864101174568
2024-06-05 15:22:43.181787,46.19847328244275,-1.2213740458015268,-6.106870229007634,0.3950432739257812,2.7629087158203123,8.453926062011718,216.8033039095477,134.2864101174568
2024-06-05 15:22:43.188701,46.3587786259542,-1.465648854961832,-5.702290076335878,0.1556231079101562,2.9927520751953125,8.398859423828124,216.8033039095477,134.2864101174568
2024-06-05 15:22:43.195882,46.14503816793893,-1.3435114503816794,-5.648854961832061,0.143652099609375,2.810792749023437,8.377311608886718,216.8033039095477,134.2864101174568
2024-06-05 15:22:43.202911,46.17557251908397,-1.2748091603053435,-5.305343511450381,0.2753331909179687,2.770091320800781,8.374917407226562,216.8033039095477,134.2864101174568
2024-06-05 15:22:43.209805,46.30534351145038,-1.7557251908396947,-4.908396946564886,0.1316810913085937,2.916137622070312,8.173804467773436,216.8033039095477,134.2864101174568
2024-06-05 15:22:43.217086,46.54198473282442,-1.549618320610687,-4.7251908396946565,0.0167594116210937,2.8467057739257813,8.221688500976562,216.8033039095477,134.2864101174568
2024-06-05 15:22:43.224029,46.49618320610687,-1.1603053435114503,-4.8320610687022905,0.2178723510742187,2.6958710693359373,8.279149340820313,216.8033039095477,134.2864101174568
2024-06-05 15:22:43.230998,46.03053435114504,-1.4961832061068705,-4.351145038167939,0.1843535278320312,2.786850732421875,8.396465222167969,216.8033039095477,134.2864101174568
2024-06-05 15:22:43.237920,46.63358778625954,-1.4961832061068705,-3.793893129770992,0.2561795776367187,2.6671406494140624,8.518569506835936,216.8033039095477,134.2864101174568
2024-06-05 15:22:43.245603,48.69465648854962,-1.3206106870229009,-3.5877862595419847,0.2274491577148437,2.7054478759765623,8.463502868652343,216.8033039095477,134.2864101174568
2024-06-05 15:22:43.253637,46.732824427480914,-1.3282442748091603,-3.5267175572519083,0.181959326171875,2.755726110839844,8.48505068359375,216.8033039095477,134.2864101174568
2024-06-05 15:22:43.260589,44.96183206106871,-1.465648854961832,-3.351145038167939,0.2418143676757812,2.655169641113281,8.451531860351562,216.8033039095477,134.2864101174568
2024-06-05 15:22:43.267468,47.0,-1.3435114503816794,-3.1297709923664123,0.1915361328124999,2.6001030029296874,8.418013037109375,216.8033039095477,134.2864101174568
2024-06-05 15:22:43.274224,47.083969465648856,-1.3511450381679388,-2.50381679389313,0.1197100830078125,2.5761609863281247,8.396465222167969,216.8033039095477,134.2864101174568
2024-06-05 15:22:43.282738,47.3587786259542,-1.2290076335877862,-2.3969465648854964,0.2705447875976562,2.559401574707031,8.358157995605469,216.8033039095477,134.2864101174568
2024-06-05 15:22:43.289687,47.595419847328245,-1.4580152671755726,-2.0381679389312977,0.1915361328124999,2.676717456054688,8.458714465332031,216.8033039095477,134.2864101174568
2024-06-05 15:22:43.296679,47.56488549618321,-1.2442748091603053,-1.931297709923664,0.1604115112304687,2.640804431152344,8.358157995605469,216.8033039095477,134.2864101174568
2024-06-05 15:22:43.303758,47.66412213740458,-1.2061068702290076,-1.7709923664122138,0.3088520141601562,2.681505859375,8.339004382324218,216.8033039095477,134.2864101174568
2024-06-05 15:22:43.311630,47.37404580152672,-1.0916030534351144,-1.1526717557251909,0.229843359375,2.786850732421875,8.406042028808594,216.8033039095477,134.2864101174568
2024-06-05 15:22:43.318986,47.732824427480914,-1.2442748091603053,-0.6870229007633588,0.143652099609375,2.798821740722656,8.386888415527343,216.8033039095477,134.2864101174568
2024-06-05 15:22:43.326058,47.70992366412214,-1.236641221374046,-0.6870229007633588,0.239420166015625,2.7246014892578123,8.396465222167969,216.8033039095477,134.2864101174568
2024-06-05 15:22:43.332884,48.16030534351145,-1.297709923664122,-0.3969465648854962,0.1651999145507812,2.70065947265625,8.341398583984375,216.8033039095477,134.2864101174568
2024-06-05 15:22:43.339747,48.19847328244275,-1.213740458015267,-0.0763358778625954,0.17238251953125,2.6982652709960937,8.365340600585936,216.8033039095477,134.2864101174568
2024-06-05 15:22:43.347287,48.35114503816794,-1.1297709923664123,0.1908396946564885,0.1556231079101562,2.767697119140625,8.372523205566406,216.8033039095477,134.2864101174568
2024-06-05 15:22:43.354383,48.14503816793893,-1.2442748091603053,0.2824427480916031,0.1843535278320312,2.8706477905273435,8.377311608886718,216.8033039095477,134.2864101174568
2024-06-05 15:22:43.361511,47.954198473282446,-1.4045801526717556,0.0687022900763358,0.1580173095703125,2.825157958984375,8.40843623046875,216.8033039095477,134.2864101174568
2024-06-05 15:22:43.368393,47.786259541984734,-1.3435114503816794,0.2137404580152671,0.229843359375,2.760514514160156,8.391676818847655,216.8033039095477,134.2864101174568
2024-06-05 15:22:43.375179,48.22900763358778,-1.1374045801526718,0.2519083969465648,0.2178723510742187,2.7629087158203123,8.40843623046875,216.8033039095477,134.2864101174568
2024-06-05 15:22:43.383474,48.2442748091603,-1.251908396946565,0.0916030534351145,0.1651999145507812,2.6886884643554687,8.453926062011718,216.8033039095477,134.2864101174568
2024-06-05 15:22:43.390392,48.38931297709924,-1.083969465648855,0.0381679389312977,0.2513911743164062,2.755726110839844,8.367734802246094,216.8033039095477,134.2864101174568
2024-06-05 15:22:43.397264,48.30534351145038,-1.3893129770992367,1.9465648854961832,0.1963245361328124,2.810792749023437,8.394071020507813,216.8033039095477,134.2864101174568
2024-06-05 15:22:43.404178,48.32824427480916,-1.4961832061068705,-0.2900763358778626,0.1651999145507812,2.8730419921875,8.43956085205078,216.8033039095477,134.2864101174568
2024-06-05 15:22:43.411951,48.267175572519086,-1.297709923664122,-0.4274809160305343,0.2226607543945312,2.841917370605469,8.403647827148436,216.8033039095477,134.2864101174568
2024-06-05 15:22:43.419282,48.18320610687023,-1.213740458015267,-0.4045801526717557,0.1867477294921875,2.913743420410156,8.379705810546875,216.8033039095477,134.2864101174568
2024-06-05 15:22:43.426474,47.96946564885496,-1.4809160305343512,-0.5419847328244275,0.2753331909179687,2.887407202148437,8.453926062011718,216.8033039095477,134.2864101174568
2024-06-05 15:22:43.433316,48.14503816793893,-1.267175572519084,-0.4045801526717557,0.2154781494140625,2.849099975585937,8.398859423828124,216.8033039095477,134.2864101174568
2024-06-05 15:22:43.440158,48.49618320610687,-1.183206106870229,-0.5419847328244275,0.0694318481445312,2.8993782104492185,8.298302954101562,216.8033039095477,134.2864101174568
2024-06-05 15:22:43.448419,47.99236641221374,-1.4732824427480915,-0.916030534351145,0.2274491577148437,3.047818713378906,8.327033374023436,216.8033039095477,134.2864101174568
2024-06-05 15:22:43.455364,48.06870229007634,-1.450381679389313,-0.9847328244274808,0.2537853759765625,2.9568390502929685,8.377311608886718,216.8033039095477,134.2864101174568
2024-06-05 15:22:43.462238,47.93129770992366,-1.4122137404580153,-0.9694656488549618,0.2753331909179687,2.9544448486328125,8.334215979003906,216.8033039095477,134.2864101174568
2024-06-05 15:22:43.469103,47.80916030534351,-1.2900763358778626,-1.0305343511450382,0.277727392578125,3.062183923339844,8.389282617187499,216.8033039095477,134.2864101174568
2024-06-05 15:22:43.475928,47.77862595419848,-1.450381679389313,-1.1221374045801529,0.2322375610351562,2.961627453613281,8.336610180664062,216.8033039095477,134.2864101174568
2024-06-05 15:22:43.483135,47.87022900763359,-1.2061068702290076,-1.3129770992366412,0.2681505859374999,2.9735984619140625,8.456320263671875,216.8033039095477,134.2864101174568
2024-06-05 15:22:43.490052,47.83206106870229,-1.1374045801526718,-1.5954198473282444,0.2753331909179687,2.9544448486328125,8.480262280273436,216.8033039095477,134.2864101174568
2024-06-05 15:22:43.496902,47.66412213740458,-1.4885496183206106,-1.717557251908397,0.2130839477539062,2.987963671875,8.367734802246094,216.8033039095477,134.2864101174568
2024-06-05 15:22:43.503763,47.48091603053435,-1.0916030534351144,-1.7709923664122138,0.21068974609375,2.896984008789062,8.360552197265624,216.8146541669759,134.32347138654276
2024-06-05 15:22:43.510637,47.63358778625954,-1.3053435114503815,-1.9083969465648856,0.229843359375,2.923320227050781,8.403647827148436,216.8146541669759,134.32347138654276
2024-06-05 15:22:43.517771,47.38931297709924,-1.3435114503816794,-1.923664122137405,0.2035071411132812,2.8658593872070317,8.396465222167969,216.8146541669759,134.32347138654276
2024-06-05 15:22:43.524667,47.58015267175573,-1.5038167938931295,-2.053435114503817,0.2346317626953125,2.85388837890625,8.463502868652343,216.8146541669759,134.32347138654276
2024-06-05 15:22:43.531471,47.61832061068702,-1.4809160305343512,-2.099236641221374,0.1556231079101562,2.89219560546875,8.432378247070313,216.8146541669759,134.32347138654276
2024-06-05 15:22:43.538278,47.63358778625954,-1.3893129770992367,-1.763358778625954,0.2489969726562499,2.942473840332031,8.358157995605469,216.8146541669759,134.32347138654276
2024-06-05 15:22:43.545499,47.32824427480916,-1.3435114503816794,-2.045801526717557,0.2154781494140625,2.868253588867187,8.358157995605469,216.8146541669759,134.32347138654276
2024-06-05 15:22:43.552777,47.44274809160305,-1.381679389312977,-2.15267175572519,0.2920926025390625,3.047818713378906,8.425195642089843,216.8146541669759,134.32347138654276
2024-06-05 15:22:43.559849,47.36641221374046,-1.534351145038168,-2.213740458015267,0.1843535278320312,2.9185318237304685,8.310273962402343,216.8146541669759,134.32347138654276
2024-06-05 15:22:43.566699,47.37404580152672,-1.5572519083969465,-2.15267175572519,0.2513911743164062,2.825157958984375,8.283937744140625,216.8146541669759,134.32347138654276
2024-06-05 15:22:43.573626,47.3587786259542,-1.3740458015267176,-0.0305343511450381,0.2274491577148437,2.8562825805664063,8.355763793945313,216.8146541669759,134.32347138654276
2024-06-05 15:22:43.581077,47.66412213740458,-1.4045801526717556,-2.2900763358778624,0.2226607543945312,2.8610709838867185,8.413224633789062,216.8146541669759,134.32347138654276
2024-06-05 15:22:43.588053,47.54198473282442,-1.4809160305343512,-2.16793893129771,0.21068974609375,2.786850732421875,8.415618835449218,216.8146541669759,134.32347138654276
2024-06-05 15:22:43.595155,47.48091603053435,-1.3129770992366412,-2.1603053435114505,0.2609679809570312,2.8036101440429686,8.501810095214843,216.8146541669759,134.32347138654276
2024-06-05 15:22:43.601979,47.42748091603053,-1.183206106870229,-2.282442748091603,0.21068974609375,2.849099975585937,8.420407238769531,216.8146541669759,134.32347138654276
2024-06-05 15:22:43.608747,47.51145038167939,-1.236641221374046,-1.923664122137405,0.2250549560546874,2.877830395507812,8.43956085205078,216.8146541669759,134.32347138654276
2024-06-05 15:22:43.616481,47.41984732824427,-1.297709923664122,-1.83206106870229,0.1843535278320312,2.863465185546875,8.406042028808594,216.8146541669759,134.32347138654276
2024-06-05 15:22:43.623397,47.56488549618321,-1.2900763358778626,-1.801526717557252,0.1963245361328124,2.849099975585937,8.374917407226562,216.8146541669759,134.32347138654276
2024-06-05 15:22:43.630534,47.38931297709924,-1.282442748091603,-1.8091603053435117,0.2130839477539062,2.8036101440429686,8.360552197265624,216.8146541669759,134.32347138654276
2024-06-05 15:22:43.637453,47.41984732824427,-1.3893129770992367,-1.7404580152671756,0.1915361328124999,2.8945898071289062,8.406042028808594,216.8146541669759,134.32347138654276
2024-06-05 15:22:43.644808,47.62595419847328,-1.3435114503816794,-1.4351145038167938,0.2178723510742187,2.896984008789062,8.441955053710936,216.8146541669759,134.32347138654276
2024-06-05 15:22:43.652239,47.6412213740458,-1.3587786259541983,-1.4198473282442747,0.229843359375,2.863465185546875,8.420407238769531,216.8146541669759,134.32347138654276
2024-06-05 15:22:43.659181,47.30534351145038,-1.1526717557251909,-1.4351145038167938,0.1891419311523437,2.91134921875,8.434772448730468,216.8146541669759,134.32347138654276
2024-06-05 15:22:43.666004,47.46564885496184,-1.3893129770992367,-1.5190839694656488,0.2250549560546874,2.8754361938476563,8.374917407226562,216.8146541669759,134.32347138654276
2024-06-05 15:22:43.672865,47.34351145038168,-1.1221374045801529,-1.1984732824427482,0.2466027709960937,2.825157958984375,8.422801440429687,216.8146541669759,134.32347138654276
2024-06-05 15:22:43.680903,47.70992366412214,-1.1221374045801529,-1.4045801526717556,0.2274491577148437,2.8993782104492185,8.513781103515624,216.8146541669759,134.32347138654276
2024-06-05 15:22:43.687868,47.41984732824427,-1.015267175572519,-1.4045801526717556,0.2489969726562499,2.825157958984375,8.382100012207031,216.8146541669759,134.32347138654276
2024-06-05 15:22:43.694764,47.48091603053435,-1.1755725190839694,-1.4809160305343512,0.258573779296875,2.882618798828125,8.43956085205078,216.8146541669759,134.32347138654276
2024-06-05 15:22:43.701667,47.36641221374046,-1.3969465648854962,-1.4885496183206106,0.1891419311523437,2.8562825805664063,8.552088330078124,216.8146541669759,134.32347138654276
2024-06-05 15:22:43.708457,47.57251908396947,-1.213740458015267,-1.6106870229007633,0.2849099975585937,2.885013000488281,8.40125362548828,216.8146541669759,134.32347138654276
2024-06-05 15:22:43.716713,47.38167938931298,-1.3053435114503815,-1.5801526717557253,0.1771709228515625,2.896984008789062,8.37012900390625,216.8146541669759,134.32347138654276
2024-06-05 15:22:43.723613,47.74809160305343,-1.3587786259541983,-1.5877862595419847,0.2442085693359375,2.8754361938476563,8.36294639892578,216.8146541669759,134.32347138654276
2024-06-05 15:22:43.730782,47.33587786259542,-1.1603053435114503,-1.717557251908397,0.296881005859375,2.885013000488281,8.396465222167969,216.8146541669759,134.32347138654276
2024-06-05 15:22:43.737809,47.38931297709924,-1.236641221374046,-1.7709923664122138,0.2370259643554687,2.9041666137695312,8.396465222167969,216.8146541669759,134.32347138654276
2024-06-05 15:22:43.745993,47.412213740458014,-1.236641221374046,-1.7404580152671756,0.2537853759765625,2.8993782104492185,8.415618835449218,216.8146541669759,134.32347138654276
2024-06-05 15:22:43.753341,47.2442748091603,-1.236641221374046,-1.6488549618320612,0.1699883178710937,2.89219560546875,8.406042028808594,216.8146541669759,134.32347138654276
2024-06-05 15:22:43.760259,47.534351145038165,-1.267175572519084,-1.6946564885496185,0.3064578125,2.7748797241210936,8.372523205566406,216.8146541669759,134.32347138654276
2024-06-05 15:22:43.767340,47.47328244274809,-1.3206106870229009,-3.885496183206107,0.2178723510742187,2.81558115234375,8.528146313476562,216.8146541669759,134.32347138654276
2024-06-05 15:22:43.774097,47.56488549618321,-1.3053435114503815,-1.900763358778626,0.1843535278320312,2.808398547363281,8.377311608886718,216.8146541669759,134.32347138654276
2024-06-05 15:22:43.782676,47.42748091603053,-1.2595419847328244,-1.9618320610687023,0.1771709228515625,2.806004345703125,8.391676818847655,216.8146541669759,134.32347138654276
2024-06-05 15:22:43.789595,47.33587786259542,-1.282442748091603,-1.786259541984733,0.201112939453125,2.887407202148437,8.348581188964843,216.8146541669759,134.32347138654276
2024-06-05 15:22:43.796701,47.41984732824427,-1.2442748091603053,-1.7099236641221374,0.2442085693359375,2.7724855224609373,8.28633194580078,216.8146541669759,134.32347138654276
2024-06-05 15:22:43.803680,47.31297709923664,-1.4274809160305344,-1.931297709923664,0.181959326171875,2.794033337402344,8.444349255371094,216.8146541669759,134.32347138654276
2024-06-05 15:22:43.811306,47.19847328244275,-1.4122137404580153,-1.8778625954198476,0.1963245361328124,2.7365724975585937,8.530540515136718,216.8146541669759,134.32347138654276
2024-06-05 15:22:43.818774,47.7175572519084,-1.0534351145038168,-1.5572519083969465,0.1699883178710937,2.7054478759765623,8.389282617187499,216.8146541669759,134.32347138654276
2024-06-05 15:22:43.825803,47.62595419847328,-1.3511450381679388,-1.450381679389313,0.1675941162109374,2.7269956909179687,8.396465222167969,216.8146541669759,134.32347138654276
2024-06-05 15:22:43.832572,47.49618320610687,-1.3206106870229009,-1.7099236641221374,0.1675941162109374,2.760514514160156,8.547299926757812,216.8146541669759,134.32347138654276
2024-06-05 15:22:43.839434,47.65648854961832,-1.2900763358778626,-1.6030534351145038,0.1628057128906249,2.612074011230469,8.508992700195313,216.8146541669759,134.32347138654276
2024-06-05 15:22:43.847749,47.65648854961832,-1.3053435114503815,-1.4427480916030535,0.1628057128906249,2.770091320800781,8.429984045410155,216.8146541669759,134.32347138654276
2024-06-05 15:22:43.854696,47.67175572519084,-1.3282442748091603,-1.4809160305343512,0.17238251953125,2.7365724975585937,8.568847741699217,216.8146541669759,134.32347138654276
2024-06-05 15:22:43.861577,47.97709923664122,-1.4885496183206106,-1.267175572519084,0.1987187377929687,2.779668127441406,8.511386901855468,216.8146541669759,134.32347138654276
2024-06-05 15:22:43.868607,47.93893129770992,-1.366412213740458,-1.183206106870229,0.15322890625,2.808398547363281,8.398859423828124,216.8146541669759,134.32347138654276
2024-06-05 15:22:43.875399,47.90076335877863,-1.381679389312977,-1.16793893129771,0.21068974609375,2.906560815429687,8.415618835449218,216.8146541669759,134.32347138654276
2024-06-05 15:22:43.882757,47.86259541984733,-1.213740458015267,-1.2061068702290076,0.239420166015625,2.7533319091796877,8.394071020507813,216.8146541669759,134.32347138654276
2024-06-05 15:22:43.889699,47.725190839694655,-1.3511450381679388,-1.2213740458015268,0.1795651245117187,2.829946362304687,8.353369592285155,216.8146541669759,134.32347138654276
2024-06-05 15:22:43.896817,47.80916030534351,-1.251908396946565,-1.236641221374046,0.1987187377929687,2.8275521606445317,8.420407238769531,216.8146541669759,134.32347138654276
2024-06-05 15:22:43.903662,47.97709923664122,-1.3740458015267176,-1.068702290076336,0.2082955444335937,2.8131869506835936,8.434772448730468,216.8146541669759,134.32347138654276
2024-06-05 15:22:43.910506,47.74045801526717,-1.3740458015267176,-1.2595419847328244,0.2035071411132812,2.8371289672851563,8.410830432128906,216.8146541669759,134.32347138654276
2024-06-05 15:22:43.918395,48.0763358778626,-1.4274809160305344,-1.3358778625954195,0.17238251953125,2.841917370605469,8.449137658691406,216.8146541669759,134.32347138654276
2024-06-05 15:22:43.925293,47.89312977099237,-1.3435114503816794,-1.4198473282442747,0.2370259643554687,2.8730419921875,8.298302954101562,216.8146541669759,134.32347138654276
2024-06-05 15:22:43.932117,47.87022900763359,-1.3740458015267176,-1.267175572519084,0.2466027709960937,2.8730419921875,8.420407238769531,216.8146541669759,134.32347138654276
2024-06-05 15:22:43.939036,47.83969465648855,-1.2061068702290076,-1.3969465648854962,0.316034619140625,2.85388837890625,8.56166513671875,216.8146541669759,134.32347138654276
2024-06-05 15:22:43.946690,47.786259541984734,-1.1984732824427482,-1.297709923664122,0.296881005859375,2.9185318237304685,8.336610180664062,216.8146541669759,134.32347138654276
2024-06-05 15:22:43.953808,47.7175572519084,-1.282442748091603,-1.3740458015267176,0.2609679809570312,2.8514941772460936,8.348581188964843,216.8146541669759,134.32347138654276
2024-06-05 15:22:43.960741,47.91603053435114,-1.3358778625954195,-1.5572519083969465,0.239420166015625,2.8802245971679685,8.449137658691406,216.8146541669759,134.32347138654276
2024-06-05 15:22:43.967766,47.97709923664122,-1.450381679389313,-1.5190839694656488,0.239420166015625,2.834734765625,8.365340600585936,216.8146541669759,134.32347138654276
2024-06-05 15:22:43.974559,47.70992366412214,-1.3893129770992367,-1.6488549618320612,0.2370259643554687,2.85388837890625,8.350975390624999,216.8146541669759,134.32347138654276
2024-06-05 15:22:43.982792,47.732824427480914,-1.3129770992366412,-1.549618320610687,0.2489969726562499,2.844311572265625,8.339004382324218,216.8146541669759,134.32347138654276
2024-06-05 15:22:43.989680,47.83206106870229,-1.3587786259541983,-1.618320610687023,0.2130839477539062,2.901772412109375,8.350975390624999,216.8146541669759,134.32347138654276
2024-06-05 15:22:43.996525,47.595419847328245,-1.3053435114503815,-1.6259541984732824,0.2753331909179687,3.0550013183593747,8.403647827148436,216.8146541669759,134.32347138654276
2024-06-05 15:22:44.003475,47.908396946564885,-1.4122137404580153,-1.5954198473282444,0.2082955444335937,2.91134921875,8.396465222167969,216.8146541669759,134.32347138654276
2024-06-05 15:22:44.010389,47.50381679389313,-1.2290076335877862,-1.5419847328244274,0.2154781494140625,2.8610709838867185,8.396465222167969,216.8146541669759,134.32347138654276
2024-06-05 15:22:44.017599,47.89312977099237,-1.2595419847328244,-1.7099236641221374,0.2059013427734375,2.8802245971679685,8.415618835449218,216.8146541669759,134.32347138654276
2024-06-05 15:22:44.024519,47.86259541984733,-1.450381679389313,-1.4961832061068705,0.239420166015625,2.8467057739257813,8.396465222167969,216.8146541669759,134.32347138654276
2024-06-05 15:22:44.031346,47.58778625954199,-1.1068702290076335,-1.5267175572519085,0.1987187377929687,2.885013000488281,8.33182177734375,216.8146541669759,134.32347138654276
2024-06-05 15:22:44.038250,47.51908396946565,-1.534351145038168,-1.6030534351145038,0.2035071411132812,2.877830395507812,8.549694128417968,216.8146541669759,134.32347138654276
2024-06-05 15:22:44.047462,47.732824427480914,-1.4198473282442747,-1.5877862595419847,0.2250549560546874,2.868253588867187,8.518569506835936,216.8146541669759,134.32347138654276
2024-06-05 15:22:44.054529,47.69465648854962,-1.4351145038167938,-1.381679389312977,0.1939303344726562,2.882618798828125,8.482656481933594,216.8146541669759,134.32347138654276
2024-06-05 15:22:44.061504,47.48091603053435,-1.3129770992366412,-1.5725190839694656,0.2178723510742187,2.89219560546875,8.444349255371094,216.8146541669759,134.32347138654276
2024-06-05 15:22:44.068612,47.6412213740458,-1.2213740458015268,-1.5877862595419847,0.1987187377929687,2.767697119140625,8.398859423828124,216.8146541669759,134.32347138654276
2024-06-05 15:22:44.075409,47.57251908396947,-1.3206106870229009,-1.6412213740458017,0.2609679809570312,2.932897033691406,8.303091357421874,216.8146541669759,134.32347138654276
2024-06-05 15:22:44.083236,47.70229007633588,-1.267175572519084,-1.5725190839694656,0.1867477294921875,2.89219560546875,8.40125362548828,216.8146541669759,134.32347138654276
2024-06-05 15:22:44.090175,47.62595419847328,-1.3587786259541983,-1.549618320610687,0.2130839477539062,2.9041666137695312,8.389282617187499,216.8146541669759,134.32347138654276
2024-06-05 15:22:44.097029,47.40458015267176,-1.251908396946565,-1.7404580152671756,0.258573779296875,2.8754361938476563,8.360552197265624,216.8146541669759,134.32347138654276
2024-06-05 15:22:44.103892,47.58778625954199,-1.366412213740458,-1.6717557251908397,0.2920926025390625,2.8754361938476563,8.501810095214843,216.8146541669759,134.32347138654276
2024-06-05 15:22:44.110756,47.48854961832061,-1.3893129770992367,-1.702290076335878,0.1843535278320312,2.85388837890625,8.353369592285155,216.8146541669759,134.32347138654276
2024-06-05 15:22:44.118009,47.62595419847328,-1.2290076335877862,-1.7786259541984732,0.296881005859375,2.923320227050781,8.425195642089843,216.8146541669759,134.32347138654276
2024-06-05 15:22:44.124881,47.35114503816794,-1.3053435114503815,-1.748091603053435,0.2466027709960937,2.932897033691406,8.398859423828124,216.8146541669759,134.32347138654276
2024-06-05 15:22:44.131697,47.40458015267176,-1.5419847328244274,-1.763358778625954,0.2202665527343749,2.93050283203125,8.418013037109375,216.8146541669759,134.32347138654276
2024-06-05 15:22:44.138551,47.51145038167939,-1.1450381679389312,-1.7786259541984732,0.2489969726562499,2.9376854370117185,8.564059338378906,216.8146541669759,134.32347138654276
2024-06-05 15:22:44.145473,47.51908396946565,-1.1908396946564883,-1.7938931297709924,0.2322375610351562,2.889801403808593,8.429984045410155,216.8146541669759,134.32347138654276
2024-06-05 15:22:44.152906,47.51145038167939,-1.2442748091603053,-1.7786259541984732,0.4548983154296874,2.8754361938476563,8.444349255371094,216.8146541669759,134.32347138654276
2024-06-05 15:22:44.159791,47.46564885496184,-1.3206106870229009,-1.618320610687023,0.2513911743164062,2.9089550170898435,8.391676818847655,216.8146541669759,134.32347138654276
2024-06-05 15:22:44.166649,47.38931297709924,-1.3511450381679388,-1.9618320610687023,0.2274491577148437,2.9089550170898435,8.32463917236328,216.8146541669759,134.32347138654276
2024-06-05 15:22:44.173462,47.36641221374046,-1.1221374045801529,-3.862595419847328,0.2202665527343749,2.858676782226562,8.298302954101562,216.8146541669759,134.32347138654276
2024-06-05 15:22:44.180692,47.38931297709924,-1.2290076335877862,-1.801526717557252,0.2513911743164062,2.8275521606445317,8.413224633789062,216.8146541669759,134.32347138654276
2024-06-05 15:22:44.187713,47.46564885496184,-1.2748091603053435,-1.763358778625954,0.2059013427734375,2.8706477905273435,8.410830432128906,216.8146541669759,134.32347138654276
2024-06-05 15:22:44.194579,47.2824427480916,-1.5572519083969465,-1.7786259541984732,0.2130839477539062,2.8945898071289062,8.425195642089843,216.8146541669759,134.32347138654276
2024-06-05 15:22:44.201430,47.045801526717554,-1.4351145038167938,-1.618320610687023,0.1628057128906249,2.863465185546875,8.394071020507813,216.8146541669759,134.32347138654276
2024-06-05 15:22:44.208230,47.18320610687023,-1.297709923664122,-1.6488549618320612,0.1556231079101562,2.849099975585937,8.394071020507813,216.8146541669759,134.32347138654276
2024-06-05 15:22:44.215493,47.27480916030535,-1.4427480916030535,-1.5190839694656488,0.181959326171875,2.8036101440429686,8.422801440429687,216.8146541669759,134.32347138654276
2024-06-05 15:22:44.222408,47.50381679389313,-1.4274809160305344,-1.3893129770992367,0.1580173095703125,2.789244934082031,8.353369592285155,216.8146541669759,134.32347138654276
2024-06-05 15:22:44.229280,47.3206106870229,-1.3511450381679388,-1.2900763358778626,0.2154781494140625,2.7054478759765623,8.480262280273436,216.8146541669759,134.32347138654276
2024-06-05 15:22:44.236142,47.70229007633588,-1.1297709923664123,-1.2900763358778626,0.2202665527343749,2.7629087158203123,8.453926062011718,216.8146541669759,134.32347138654276
2024-06-05 15:22:44.243026,47.55725190839695,-1.267175572519084,-1.4122137404580153,0.1747767211914062,2.779668127441406,8.43956085205078,216.8146541669759,134.32347138654276
2024-06-05 15:22:44.250288,47.55725190839695,-1.282442748091603,-1.4732824427480915,0.1963245361328124,2.810792749023437,8.470685473632813,216.8146541669759,134.32347138654276
2024-06-05 15:22:44.257211,47.57251908396947,-1.4045801526717556,-1.618320610687023,0.2082955444335937,2.7150246826171878,8.432378247070313,216.8146541669759,134.32347138654276
2024-06-05 15:22:44.264056,47.74045801526717,-1.1755725190839694,-1.3587786259541983,0.2082955444335937,2.6886884643554687,8.398859423828124,216.8146541669759,134.32347138654276
2024-06-05 15:22:44.270923,47.61068702290076,-1.4274809160305344,-1.4885496183206106,0.1963245361328124,2.7581203125,8.44674345703125,216.8146541669759,134.32347138654276
2024-06-05 15:22:44.277790,47.80916030534351,-1.2900763358778626,-1.267175572519084,0.17238251953125,2.789244934082031,8.415618835449218,216.8146541669759,134.32347138654276
2024-06-05 15:22:44.284986,47.64885496183206,-1.267175572519084,-1.4198473282442747,0.2609679809570312,2.7653029174804686,8.40125362548828,216.8146541669759,134.32347138654276
2024-06-05 15:22:44.291862,47.52671755725191,-1.3893129770992367,-1.4885496183206106,0.1675941162109374,2.801215942382812,8.389282617187499,216.8146541669759,134.32347138654276
2024-06-05 15:22:44.298680,47.65648854961832,-1.4580152671755726,-1.3206106870229009,0.28730419921875,2.7581203125,8.413224633789062,216.8146541669759,134.32347138654276
2024-06-05 15:22:44.305534,47.74809160305343,-1.5419847328244274,-1.549618320610687,0.2442085693359375,2.7916391357421872,8.475473876953124,216.8146541669759,134.32347138654276
2024-06-05 15:22:44.314054,47.954198473282446,-1.5572519083969465,-1.16793893129771,0.2537853759765625,2.779668127441406,8.482656481933594,216.8146541669759,134.32347138654276
2024-06-05 15:22:44.321060,47.87022900763359,-1.2290076335877862,-1.3282442748091603,0.4429273071289062,2.806004345703125,8.281543542480469,216.8146541669759,134.32347138654276
2024-06-05 15:22:44.328197,47.89312977099237,-1.3893129770992367,-1.5648854961832062,0.2657563842773437,2.798821740722656,8.406042028808594,216.8146541669759,134.32347138654276
2024-06-05 15:22:44.335183,47.91603053435114,-1.213740458015267,-1.3511450381679388,0.2729389892578124,2.8610709838867185,8.432378247070313,216.8146541669759,134.32347138654276
2024-06-05 15:22:44.341973,48.0,-1.2748091603053435,-1.3435114503816794,0.430956298828125,2.8610709838867185,8.384494213867187,216.8146541669759,134.32347138654276
2024-06-05 15:22:44.350251,47.7175572519084,-1.1068702290076335,-1.4045801526717556,0.2849099975585937,2.9185318237304685,8.415618835449218,216.8146541669759,134.32347138654276
2024-06-05 15:22:44.357179,47.88549618320611,-1.3129770992366412,-1.366412213740458,0.2466027709960937,2.849099975585937,8.391676818847655,216.8146541669759,134.32347138654276
2024-06-05 15:22:44.364228,47.79389312977099,-1.236641221374046,-1.5725190839694656,0.296881005859375,2.8993782104492185,8.492233288574218,216.8146541669759,134.32347138654276
2024-06-05 15:22:44.371151,47.93893129770992,-1.366412213740458,-1.5114503816793894,0.2154781494140625,2.8227637573242186,8.413224633789062,216.8146541669759,134.32347138654276
2024-06-05 15:22:44.378440,47.91603053435114,-1.3358778625954195,-1.4351145038167938,0.2130839477539062,2.8993782104492185,8.461108666992187,216.8146541669759,134.32347138654276
2024-06-05 15:22:44.385710,47.96183206106871,-1.3358778625954195,-1.5038167938931295,0.1891419311523437,2.887407202148437,8.329427575683594,216.8146541669759,134.32347138654276
2024-06-05 15:22:44.392747,47.908396946564885,-1.2213740458015268,-1.732824427480916,0.2466027709960937,3.057395520019531,8.341398583984375,216.8146541669759,134.32347138654276
2024-06-05 15:22:44.399692,48.06870229007634,-1.4427480916030535,-1.4732824427480915,0.1867477294921875,2.8802245971679685,8.372523205566406,216.8146541669759,134.32347138654276
2024-06-05 15:22:44.406514,47.7557251908397,-1.3969465648854962,-1.6793893129770991,0.1556231079101562,2.8467057739257813,8.480262280273436,216.8146541669759,134.32347138654276
2024-06-05 15:22:44.414377,47.81679389312977,-1.4274809160305344,-1.83206106870229,0.2274491577148437,2.9041666137695312,8.410830432128906,216.8146541669759,134.32347138654276
2024-06-05 15:22:44.421317,47.786259541984734,-1.5419847328244274,-1.9083969465648856,0.181959326171875,2.89219560546875,8.482656481933594,216.8146541669759,134.32347138654276
2024-06-05 15:22:44.428194,47.770992366412216,-1.3129770992366412,-1.7557251908396947,0.2154781494140625,2.9448680419921875,8.329427575683594,216.8146541669759,134.32347138654276
2024-06-05 15:22:44.435054,47.595419847328245,-1.618320610687023,-1.870229007633588,0.2992752075195312,2.8371289672851563,8.425195642089843,216.8146541669759,134.32347138654276
2024-06-05 15:22:44.441864,47.6412213740458,-1.4351145038167938,-3.862595419847328,0.1939303344726562,2.8754361938476563,8.441955053710936,216.8146541669759,134.32347138654276
2024-06-05 15:22:44.449082,47.68702290076336,-1.2213740458015268,-3.908396946564885,0.181959326171875,2.8610709838867185,8.379705810546875,216.8146541669759,134.32347138654276
2024-06-05 15:22:44.456023,47.61832061068702,-1.5038167938931295,-3.8931297709923673,0.2082955444335937,2.8227637573242186,8.341398583984375,216.8146541669759,134.32347138654276
2024-06-05 15:22:44.462882,47.63358778625954,-1.3053435114503815,-1.6717557251908397,0.0,2.863465185546875,8.329427575683594,216.8146541669759,134.32347138654276
2024-06-05 15:22:44.469767,47.57251908396947,-1.5038167938931295,-1.7099236641221374,0.1795651245117187,2.889801403808593,8.372523205566406,216.8146541669759,134.32347138654276
2024-06-05 15:22:44.476627,47.6793893129771,-1.3282442748091603,-1.4961832061068705,0.21068974609375,2.8754361938476563,8.396465222167969,216.8146541669759,134.32347138654276
2024-06-05 15:22:44.483892,47.51145038167939,-1.1374045801526718,-1.5114503816793894,0.2130839477539062,2.8945898071289062,8.379705810546875,216.8146541669759,134.32347138654276
2024-06-05 15:22:44.490803,47.458015267175576,-1.236641221374046,-1.4198473282442747,0.2537853759765625,3.0454245117187497,8.389282617187499,216.8146541669759,134.32347138654276
2024-06-05 15:22:44.497649,47.51145038167939,-1.3587786259541983,-1.4198473282442747,0.2561795776367187,2.882618798828125,8.360552197265624,216.8146541669759,134.32347138654276
2024-06-05 15:22:44.504494,47.412213740458014,-1.3282442748091603,-1.2442748091603053,0.2705447875976562,2.8993782104492185,8.394071020507813,216.86004838812477,134.3420075809989
2024-06-05 15:22:44.511356,47.52671755725191,-1.2213740458015268,-1.1526717557251909,0.2681505859374999,2.9376854370117185,8.453926062011718,216.86004838812477,134.3420075809989
2024-06-05 15:22:44.518576,47.80152671755725,-1.16793893129771,-1.1984732824427482,0.2705447875976562,2.825157958984375,8.379705810546875,216.86004838812477,134.3420075809989
2024-06-05 15:22:44.525451,47.6793893129771,-1.3435114503816794,-1.1526717557251909,0.2178723510742187,2.916137622070312,8.425195642089843,216.86004838812477,134.3420075809989
2024-06-05 15:22:44.532284,47.7557251908397,-1.0305343511450382,-1.1297709923664123,0.28730419921875,2.93050283203125,8.415618835449218,216.86004838812477,134.3420075809989
2024-06-05 15:22:44.539120,47.2824427480916,-1.2290076335877862,-1.2442748091603053,0.2178723510742187,2.942473840332031,8.358157995605469,216.86004838812477,134.3420075809989
2024-06-05 15:22:44.546437,47.58778625954199,-1.1908396946564883,-1.236641221374046,0.2082955444335937,3.057395520019531,8.473079675292968,216.86004838812477,134.3420075809989
2024-06-05 15:22:44.553616,47.40458015267176,-1.083969465648855,-1.465648854961832,0.2753331909179687,2.877830395507812,8.480262280273436,216.86004838812477,134.3420075809989
2024-06-05 15:22:44.560511,47.6793893129771,-1.183206106870229,-1.4580152671755726,0.2681505859374999,2.8467057739257813,8.418013037109375,216.86004838812477,134.3420075809989
2024-06-05 15:22:44.567366,47.3206106870229,-1.4732824427480915,-1.381679389312977,0.2370259643554687,2.832340563964844,8.384494213867187,216.86004838812477,134.3420075809989
2024-06-05 15:22:44.574164,47.44274809160305,-1.3129770992366412,-1.5877862595419847,0.2346317626953125,2.806004345703125,8.463502868652343,216.86004838812477,134.3420075809989
2024-06-05 15:22:44.581378,47.54198473282442,-1.236641221374046,-1.5114503816793894,0.2178723510742187,2.801215942382812,8.346186987304687,216.86004838812477,134.3420075809989
2024-06-05 15:22:44.588300,47.25954198473283,-1.1603053435114503,-1.7099236641221374,0.1963245361328124,2.808398547363281,8.312668164062499,216.86004838812477,134.3420075809989
2024-06-05 15:22:44.595176,47.11450381679389,-1.282442748091603,-1.6870229007633588,0.1795651245117187,2.808398547363281,8.37012900390625,216.86004838812477,134.3420075809989
2024-06-05 15:22:44.602027,47.34351145038168,-1.1908396946564883,-1.702290076335878,0.2896984008789062,2.844311572265625,8.40843623046875,216.86004838812477,134.3420075809989
2024-06-05 15:22:44.608821,47.37404580152672,-1.1984732824427482,-1.870229007633588,0.239420166015625,2.810792749023437,8.365340600585936,216.86004838812477,134.3420075809989
2024-06-05 15:22:44.616034,47.458015267175576,-1.267175572519084,-1.83206106870229,0.1580173095703125,2.825157958984375,8.341398583984375,216.86004838812477,134.3420075809989
2024-06-05 15:22:44.622983,47.40458015267176,-1.251908396946565,-2.015267175572519,0.2322375610351562,2.7964275390625,8.40843623046875,216.86004838812477,134.3420075809989
2024-06-05 15:22:44.629880,47.43511450381679,-1.4198473282442747,-1.9083969465648856,0.2178723510742187,2.834734765625,8.415618835449218,216.86004838812477,134.3420075809989
2024-06-05 15:22:44.636740,47.49618320610687,-1.3206106870229009,-1.8244274809160304,0.201112939453125,2.8036101440429686,8.456320263671875,216.86004838812477,134.3420075809989
2024-06-05 15:22:44.644824,47.42748091603053,-1.3511450381679388,-1.7786259541984732,0.1580173095703125,2.8036101440429686,8.465897070312499,216.86004838812477,134.3420075809989
2024-06-05 15:22:44.652287,47.62595419847328,-1.1526717557251909,-1.801526717557252,0.2226607543945312,2.817975354003906,8.303091357421874,216.86004838812477,134.3420075809989
2024-06-05 15:22:44.659466,47.55725190839695,-1.3282442748091603,-1.7938931297709924,0.2274491577148437,2.77727392578125,8.444349255371094,216.86004838812477,134.3420075809989
2024-06-05 15:22:44.666297,47.66412213740458,-1.381679389312977,-1.7557251908396947,0.201112939453125,2.7150246826171878,8.44674345703125,216.86004838812477,134.3420075809989
2024-06-05 15:22:44.673133,47.76335877862596,-1.3511450381679388,-1.534351145038168,0.1699883178710937,2.767697119140625,8.374917407226562,216.86004838812477,134.3420075809989
2024-06-05 15:22:44.681374,47.52671755725191,-1.5114503816793894,-1.6793893129770991,0.1795651245117187,2.779668127441406,8.372523205566406,216.86004838812477,134.3420075809989
2024-06-05 15:22:44.688336,47.52671755725191,-1.3053435114503815,-1.5954198473282444,0.0454898315429687,2.789244934082031,8.367734802246094,216.86004838812477,134.3420075809989
2024-06-05 15:22:44.695224,47.458015267175576,-1.2213740458015268,-1.465648854961832,0.1987187377929687,2.779668127441406,8.341398583984375,216.86004838812477,134.3420075809989
2024-06-05 15:22:44.702220,47.91603053435114,-1.5190839694656488,-1.549618320610687,0.2250549560546874,2.770091320800781,8.386888415527343,216.86004838812477,134.3420075809989
2024-06-05 15:22:44.709033,48.03053435114504,-1.450381679389313,-1.297709923664122,0.2657563842773437,2.825157958984375,8.377311608886718,216.86004838812477,134.3420075809989
2024-06-05 15:22:44.717251,47.770992366412216,-1.4122137404580153,-1.4885496183206106,0.2178723510742187,2.829946362304687,8.427589843749999,216.86004838812477,134.3420075809989
2024-06-05 15:22:44.724198,47.9236641221374,-1.2900763358778626,-1.4351145038167938,0.1987187377929687,2.806004345703125,8.552088330078124,216.86004838812477,134.3420075809989
2024-06-05 15:22:44.731289,47.90076335877863,-1.2213740458015268,-1.3893129770992367,0.2059013427734375,2.798821740722656,8.432378247070313,216.86004838812477,134.3420075809989
2024-06-05 15:22:44.738175,47.93129770992366,-1.282442748091603,-1.3435114503816794,0.2466027709960937,2.801215942382812,8.43956085205078,216.86004838812477,134.3420075809989
2024-06-05 15:22:44.746185,48.21374045801527,-1.3435114503816794,-1.3740458015267176,0.2370259643554687,2.85388837890625,8.535328918457031,216.86004838812477,134.3420075809989
2024-06-05 15:22:44.753435,48.13740458015267,-1.3740458015267176,-1.4732824427480915,0.2609679809570312,2.8227637573242186,8.310273962402343,216.86004838812477,134.3420075809989
2024-06-05 15:22:44.760575,47.91603053435114,-1.4351145038167938,-1.3435114503816794,0.2513911743164062,2.8371289672851563,8.432378247070313,216.86004838812477,134.3420075809989
2024-06-05 15:22:44.767576,47.83969465648855,-1.4351145038167938,-1.3206106870229009,0.2418143676757812,2.8802245971679685,8.382100012207031,216.86004838812477,134.3420075809989
2024-06-05 15:22:44.774379,48.10687022900763,-1.450381679389313,-1.4351145038167938,0.2274491577148437,2.8802245971679685,8.542511523437499,216.86004838812477,134.3420075809989
2024-06-05 15:22:44.782771,47.61068702290076,-1.3511450381679388,-1.4045801526717556,0.2896984008789062,3.0166940917968748,8.312668164062499,216.86004838812477,134.3420075809989
2024-06-05 15:22:44.789728,47.7175572519084,-1.4809160305343512,-1.5267175572519085,0.2442085693359375,2.8371289672851563,8.355763793945313,216.86004838812477,134.3420075809989
2024-06-05 15:22:44.796628,47.89312977099237,-1.4580152671755726,-1.6946564885496185,0.1891419311523437,2.8514941772460936,8.394071020507813,216.86004838812477,134.3420075809989
2024-06-05 15:22:44.803517,47.7557251908397,-1.3511450381679388,-1.6412213740458017,0.2178723510742187,2.8706477905273435,8.367734802246094,216.86004838812477,134.3420075809989
2024-06-05 15:22:44.811075,47.80152671755725,-1.3587786259541983,-1.5877862595419847,0.2178723510742187,2.7844565307617186,8.434772448730468,216.86004838812477,134.3420075809989
2024-06-05 15:22:44.818562,47.86259541984733,-1.076335877862595,-1.5648854961832062,0.3016694091796875,2.8754361938476563,8.386888415527343,216.86004838812477,134.3420075809989
2024-06-05 15:22:44.825756,47.89312977099237,-1.4198473282442747,-1.7099236641221374,0.2130839477539062,2.8514941772460936,8.298302954101562,216.86004838812477,134.3420075809989
2024-06-05 15:22:44.832583,47.81679389312977,-1.2748091603053435,-1.816793893129771,0.229843359375,3.0310593017578125,8.358157995605469,216.86004838812477,134.3420075809989
2024-06-05 15:22:44.839450,47.85496183206107,-1.4122137404580153,-1.6564885496183206,0.28730419921875,2.8706477905273435,8.334215979003906,216.86004838812477,134.3420075809989
2024-06-05 15:22:44.847072,47.69465648854962,-1.3511450381679388,-1.7404580152671756,0.2801215942382812,2.91134921875,8.394071020507813,216.86004838812477,134.3420075809989
2024-06-05 15:22:44.854099,47.63358778625954,-1.213740458015267,-1.6259541984732824,0.2633621826171874,2.9185318237304685,8.374917407226562,216.86004838812477,134.3420075809989
2024-06-05 15:22:44.861132,47.74045801526717,-1.2748091603053435,-1.6030534351145038,0.2466027709960937,2.959233251953125,8.432378247070313,216.86004838812477,134.3420075809989
2024-06-05 15:22:44.868002,47.76335877862596,-1.4198473282442747,-1.6259541984732824,0.2466027709960937,2.920926025390625,8.427589843749999,216.86004838812477,134.3420075809989
2024-06-05 15:22:44.874758,47.45038167938932,-1.251908396946565,-1.450381679389313,0.2082955444335937,3.0310593017578125,8.410830432128906,216.86004838812477,134.3420075809989
2024-06-05 15:22:44.883881,47.85496183206107,-1.4274809160305344,-1.6030534351145038,0.2250549560546874,2.889801403808593,8.391676818847655,216.86004838812477,134.3420075809989
2024-06-05 15:22:44.890813,47.64885496183206,-1.3282442748091603,-1.465648854961832,0.2130839477539062,2.89219560546875,8.384494213867187,216.86004838812477,134.3420075809989
2024-06-05 15:22:44.897746,47.7557251908397,-1.267175572519084,-1.4045801526717556,0.2561795776367187,2.901772412109375,8.283937744140625,216.86004838812477,134.3420075809989
2024-06-05 15:22:44.904719,47.61068702290076,-1.366412213740458,-1.4809160305343512,0.277727392578125,2.91134921875,8.415618835449218,216.86004838812477,134.3420075809989
2024-06-05 15:22:44.912840,47.58015267175573,-1.3587786259541983,-1.5419847328244274,0.2489969726562499,2.901772412109375,8.298302954101562,216.86004838812477,134.3420075809989
2024-06-05 15:22:44.920148,47.41984732824427,-1.3435114503816794,-1.4045801526717556,0.2561795776367187,2.9496564453125,8.305485559082031,216.86004838812477,134.3420075809989
2024-06-05 15:22:44.927044,47.32824427480916,-1.3053435114503815,-1.3206106870229009,0.277727392578125,3.0550013183593747,8.444349255371094,216.86004838812477,134.3420075809989
2024-06-05 15:22:44.933947,47.29770992366412,-1.3053435114503815,-1.5419847328244274,0.258573779296875,2.887407202148437,8.418013037109375,216.86004838812477,134.3420075809989
2024-06-05 15:22:44.940775,47.458015267175576,-1.297709923664122,-1.5114503816793894,0.1628057128906249,2.8945898071289062,8.389282617187499,216.86004838812477,134.3420075809989
2024-06-05 15:22:44.948920,47.42748091603053,-1.2748091603053435,-1.534351145038168,0.1580173095703125,2.901772412109375,8.379705810546875,216.86004838812477,134.3420075809989
2024-06-05 15:22:44.955857,47.44274809160305,-1.1526717557251909,-1.5572519083969465,0.258573779296875,2.863465185546875,8.353369592285155,216.86004838812477,134.3420075809989
2024-06-05 15:22:44.962777,47.47328244274809,-1.2595419847328244,-1.5725190839694656,0.1412578979492187,2.839523168945312,8.494627490234375,216.86004838812477,134.3420075809989
2024-06-05 15:22:44.969659,47.412213740458014,-1.297709923664122,-1.6030534351145038,0.2250549560546874,2.794033337402344,8.528146313476562,216.86004838812477,134.3420075809989
2024-06-05 15:22:44.976590,47.396946564885496,-1.2290076335877862,-1.732824427480916,0.2657563842773437,2.8610709838867185,8.40125362548828,216.86004838812477,134.3420075809989
2024-06-05 15:22:44.984105,47.46564885496184,-1.1526717557251909,-1.7404580152671756,0.2178723510742187,2.841917370605469,8.415618835449218,216.86004838812477,134.3420075809989
2024-06-05 15:22:44.991038,47.30534351145038,-1.1068702290076335,-1.6259541984732824,0.1604115112304687,2.885013000488281,8.444349255371094,216.86004838812477,134.3420075809989
2024-06-05 15:22:44.998070,47.23664122137404,-1.2061068702290076,-1.6793893129770991,0.2561795776367187,2.834734765625,8.398859423828124,216.86004838812477,134.3420075809989
2024-06-05 15:22:45.004893,47.19847328244275,-1.4045801526717556,-1.6870229007633588,0.1891419311523437,2.85388837890625,8.358157995605469,216.86004838812477,134.3420075809989
2024-06-05 15:22:45.012419,47.48091603053435,-1.2442748091603053,-1.5648854961832062,0.229843359375,2.834734765625,8.336610180664062,216.86004838812477,134.3420075809989
2024-06-05 15:22:45.019779,47.74045801526717,-1.236641221374046,-1.3740458015267176,0.2346317626953125,2.841917370605469,8.449137658691406,216.86004838812477,134.3420075809989
2024-06-05 15:22:45.026748,47.38931297709924,-1.2748091603053435,-1.5648854961832062,0.2035071411132812,2.839523168945312,8.422801440429687,216.86004838812477,134.3420075809989
2024-06-05 15:22:45.033779,47.44274809160305,-1.3206106870229009,-1.4045801526717556,0.296881005859375,2.906560815429687,8.367734802246094,216.86004838812477,134.3420075809989
2024-06-05 15:22:45.040622,47.38167938931298,-1.282442748091603,-1.4045801526717556,0.2418143676757812,2.841917370605469,8.434772448730468,216.86004838812477,134.3420075809989
2024-06-05 15:22:45.048266,47.412213740458014,-1.2595419847328244,-1.3511450381679388,0.2466027709960937,2.817975354003906,8.365340600585936,216.86004838812477,134.3420075809989
2024-06-05 15:22:45.055229,47.38931297709924,-1.282442748091603,-1.3587786259541983,0.2657563842773437,2.794033337402344,8.427589843749999,216.86004838812477,134.3420075809989
2024-06-05 15:22:45.062291,47.61832061068702,-1.381679389312977,-1.5877862595419847,0.2322375610351562,2.8467057739257813,8.432378247070313,216.86004838812477,134.3420075809989
2024-06-05 15:22:45.069218,47.41984732824427,-1.1984732824427482,-1.3435114503816794,0.2489969726562499,2.8562825805664063,8.494627490234375,216.86004838812477,134.3420075809989
2024-06-05 15:22:45.076119,47.93129770992366,-1.1984732824427482,-1.5725190839694656,0.1939303344726562,2.8036101440429686,8.327033374023436,216.86004838812477,134.3420075809989
2024-06-05 15:22:45.083534,47.49618320610687,-1.2442748091603053,-1.4809160305343512,0.21068974609375,2.806004345703125,8.394071020507813,216.86004838812477,134.3420075809989
2024-06-05 15:22:45.090454,47.51908396946565,-1.2290076335877862,-1.4122137404580153,0.1699883178710937,2.8467057739257813,8.398859423828124,216.86004838812477,134.3420075809989
2024-06-05 15:22:45.097318,47.534351145038165,-1.3740458015267176,-1.534351145038168,0.2035071411132812,2.7533319091796877,8.37012900390625,216.86004838812477,134.3420075809989
2024-06-05 15:22:45.104273,47.54198473282442,-1.251908396946565,-1.6259541984732824,0.2537853759765625,2.8131869506835936,8.40125362548828,216.86004838812477,134.3420075809989
2024-06-05 15:22:45.111145,47.595419847328245,-1.2061068702290076,-1.7557251908396947,0.2825157958984375,2.841917370605469,8.394071020507813,216.86004838812477,134.3420075809989
2024-06-05 15:22:45.118320,47.43511450381679,-1.251908396946565,-1.5419847328244274,0.181959326171875,2.829946362304687,8.406042028808594,216.86004838812477,134.3420075809989
2024-06-05 15:22:45.125198,47.55725190839695,-1.16793893129771,-1.4274809160305344,0.1556231079101562,2.779668127441406,8.458714465332031,216.86004838812477,134.3420075809989
2024-06-05 15:22:45.131972,47.86259541984733,-1.3053435114503815,-1.5038167938931295,0.1939303344726562,2.7844565307617186,8.449137658691406,216.86004838812477,134.3420075809989
2024-06-05 15:22:45.138793,47.7557251908397,-1.4198473282442747,-1.4351145038167938,0.17238251953125,2.825157958984375,8.300697155761718,216.86004838812477,134.3420075809989
2024-06-05 15:22:45.145940,47.7175572519084,-1.2061068702290076,-1.5725190839694656,0.2154781494140625,2.779668127441406,8.341398583984375,216.86004838812477,134.3420075809989
2024-06-05 15:22:45.153151,47.68702290076336,-1.4351145038167938,-1.6946564885496185,0.2274491577148437,2.794033337402344,8.384494213867187,216.86004838812477,134.3420075809989
2024-06-05 15:22:45.160027,47.81679389312977,-1.3740458015267176,-1.5954198473282444,0.2035071411132812,2.7820623291015623,8.511386901855468,216.86004838812477,134.3420075809989
2024-06-05 15:22:45.166972,47.32824427480916,-1.3511450381679388,-1.6793893129770991,0.2609679809570312,2.81558115234375,8.463502868652343,216.86004838812477,134.3420075809989
2024-06-05 15:22:45.173730,47.56488549618321,-1.450381679389313,-1.6870229007633588,0.1867477294921875,2.808398547363281,8.406042028808594,216.86004838812477,134.3420075809989
2024-06-05 15:22:45.181279,47.847328244274806,-1.282442748091603,-1.6412213740458017,0.2082955444335937,2.906560815429687,8.44674345703125,216.86004838812477,134.3420075809989
2024-06-05 15:22:45.188180,47.58015267175573,-1.1984732824427482,-1.549618320610687,0.1867477294921875,2.798821740722656,8.2743609375,216.86004838812477,134.3420075809989
2024-06-05 15:22:45.195089,47.62595419847328,-1.2748091603053435,-1.7557251908396947,0.21068974609375,2.808398547363281,8.327033374023436,216.86004838812477,134.3420075809989
2024-06-05 15:22:45.202119,47.51145038167939,-1.3435114503816794,-1.6870229007633588,0.2346317626953125,2.8562825805664063,8.312668164062499,216.86004838812477,134.3420075809989
2024-06-05 15:22:45.208911,47.396946564885496,-1.3969465648854962,-1.6412213740458017,0.2322375610351562,2.832340563964844,8.394071020507813,216.86004838812477,134.3420075809989
2024-06-05 15:22:45.216101,47.63358778625954,-1.099236641221374,-1.6106870229007633,0.2489969726562499,2.7724855224609373,8.355763793945313,216.86004838812477,134.3420075809989
2024-06-05 15:22:45.222984,48.099236641221374,-1.3129770992366412,-1.5725190839694656,0.2633621826171874,2.81558115234375,8.429984045410155,216.86004838812477,134.3420075809989
2024-06-05 15:22:45.230106,47.89312977099237,-1.450381679389313,-1.381679389312977,0.2274491577148437,2.808398547363281,8.410830432128906,216.86004838812477,134.3420075809989
2024-06-05 15:22:45.237011,47.85496183206107,-1.1450381679389312,-1.2290076335877862,0.1508347045898437,2.885013000488281,8.367734802246094,216.86004838812477,134.3420075809989
2024-06-05 15:22:45.243883,47.67175572519084,-1.236641221374046,-1.381679389312977,0.2059013427734375,2.8371289672851563,8.319850769042969,216.86004838812477,134.3420075809989
2024-06-05 15:22:45.251042,47.80916030534351,-1.213740458015267,-1.3893129770992367,0.258573779296875,2.8610709838867185,8.379705810546875,216.86004838812477,134.3420075809989
2024-06-05 15:22:45.257894,47.65648854961832,-1.4198473282442747,-1.3282442748091603,0.2178723510742187,2.8993782104492185,8.410830432128906,216.86004838812477,134.3420075809989
2024-06-05 15:22:45.264720,47.61832061068702,-1.251908396946565,-1.251908396946565,0.2346317626953125,2.8562825805664063,8.559270935058594,216.86004838812477,134.3420075809989
2024-06-05 15:22:45.271580,47.6793893129771,-1.251908396946565,-1.3206106870229009,0.2466027709960937,2.7629087158203123,8.382100012207031,216.86004838812477,134.3420075809989
2024-06-05 15:22:45.278459,47.62595419847328,-1.4961832061068705,-1.4885496183206106,0.1651999145507812,2.7844565307617186,8.391676818847655,216.86004838812477,134.3420075809989
2024-06-05 15:22:45.285717,47.61832061068702,-1.4351145038167938,-1.6412213740458017,0.2681505859374999,2.7581203125,8.418013037109375,216.86004838812477,134.3420075809989
2024-06-05 15:22:45.292607,47.88549618320611,-1.366412213740458,-1.7786259541984732,0.2537853759765625,2.8036101440429686,8.403647827148436,216.86004838812477,134.3420075809989
2024-06-05 15:22:45.299418,47.74809160305343,-1.366412213740458,-1.6870229007633588,0.2442085693359375,2.8275521606445317,8.518569506835936,216.86004838812477,134.3420075809989
2024-06-05 15:22:45.306250,47.61832061068702,-1.3893129770992367,-1.8854961832061068,0.1963245361328124,2.8658593872070317,8.36294639892578,216.86004838812477,134.3420075809989
2024-06-05 15:22:45.314848,47.85496183206107,-1.4351145038167938,-0.0229007633587786,0.1604115112304687,2.779668127441406,8.406042028808594,216.86004838812477,134.3420075809989
2024-06-05 15:22:45.321788,47.76335877862596,-1.3893129770992367,-1.931297709923664,0.2346317626953125,2.7748797241210936,8.384494213867187,216.86004838812477,134.3420075809989
2024-06-05 15:22:45.328683,47.85496183206107,-1.5877862595419847,-2.068702290076336,0.181959326171875,2.832340563964844,8.360552197265624,216.86004838812477,134.3420075809989
2024-06-05 15:22:45.335598,47.70992366412214,-1.3282442748091603,-0.0076335877862595,0.1675941162109374,2.8036101440429686,8.47786807861328,216.86004838812477,134.3420075809989
2024-06-05 15:22:45.342433,47.732824427480914,-1.5114503816793894,-1.931297709923664,0.2250549560546874,2.8610709838867185,8.489839086914062,216.86004838812477,134.3420075809989
2024-06-05 15:22:45.350058,47.80916030534351,-1.4122137404580153,-3.862595419847328,0.1747767211914062,2.767697119140625,8.33182177734375,216.86004838812477,134.3420075809989
2024-06-05 15:22:45.356974,47.954198473282446,-1.4427480916030535,-1.748091603053435,0.2059013427734375,2.750937707519531,8.468291271972657,216.86004838812477,134.3420075809989
2024-06-05 15:22:45.363886,47.83206106870229,-1.4427480916030535,-1.748091603053435,0.2322375610351562,2.767697119140625,8.295908752441406,216.86004838812477,134.3420075809989
2024-06-05 15:22:45.370837,47.9236641221374,-1.4198473282442747,-1.549618320610687,0.2130839477539062,2.760514514160156,8.530540515136718,216.86004838812477,134.3420075809989
2024-06-05 15:22:45.377730,47.94656488549618,-1.3740458015267176,-1.5648854961832062,0.1580173095703125,2.7820623291015623,8.432378247070313,216.86004838812477,134.3420075809989
2024-06-05 15:22:45.385066,47.96946564885496,-1.2900763358778626,-1.534351145038168,0.1963245361328124,2.8131869506835936,8.427589843749999,216.86004838812477,134.3420075809989
2024-06-05 15:22:45.391987,48.00763358778626,-1.3893129770992367,-1.3053435114503815,0.1915361328124999,2.877830395507812,8.482656481933594,216.86004838812477,134.3420075809989
2024-06-05 15:22:45.398791,48.01526717557252,-1.1374045801526718,-1.4427480916030535,0.239420166015625,2.8610709838867185,8.384494213867187,216.86004838812477,134.3420075809989
2024-06-05 15:22:45.405866,47.85496183206107,-1.4045801526717556,-1.183206106870229,0.2130839477539062,2.85388837890625,8.394071020507813,216.86004838812477,134.3420075809989
2024-06-05 15:22:45.413144,47.82442748091603,-1.282442748091603,-1.3206106870229009,0.1675941162109374,3.047818713378906,8.384494213867187,216.86004838812477,134.3420075809989
2024-06-05 15:22:45.420399,47.86259541984733,-1.2748091603053435,-1.297709923664122,0.2537853759765625,2.9448680419921875,8.329427575683594,216.86004838812477,134.3420075809989
2024-06-05 15:22:45.427436,47.908396946564885,-1.3282442748091603,-1.251908396946565,0.296881005859375,2.990357873535156,8.391676818847655,216.86004838812477,134.3420075809989
2024-06-05 15:22:45.434397,48.00763358778626,-1.4351145038167938,-1.1145038167938932,0.2250549560546874,3.0142998901367184,8.2743609375,216.86004838812477,134.3420075809989
2024-06-05 15:22:45.441198,47.58015267175573,-1.381679389312977,-1.0916030534351144,0.2849099975585937,2.9831752685546875,8.307879760742187,216.86004838812477,134.3420075809989
2024-06-05 15:22:45.448544,47.94656488549618,-1.1984732824427482,-1.0305343511450382,0.3280056274414062,2.9975404785156248,8.367734802246094,216.86004838812477,134.3420075809989
2024-06-05 15:22:45.455431,47.83206106870229,-1.282442748091603,-1.1526717557251909,0.28730419921875,3.0813375366210938,8.334215979003906,216.86004838812477,134.3420075809989
2024-06-05 15:22:45.462261,47.55725190839695,-1.2061068702290076,-1.0,0.4237736938476562,3.0334535034179684,8.549694128417968,216.86004838812477,134.3420075809989
2024-06-05 15:22:45.469107,47.45038167938932,-1.2061068702290076,-1.0229007633587786,0.4333505004882812,3.105279553222656,8.413224633789062,216.86004838812477,134.3420075809989
2024-06-05 15:22:45.475921,47.396946564885496,-1.1221374045801529,-0.916030534351145,0.3782838623046874,3.0238766967773434,8.537723120117187,216.86004838812477,134.3420075809989
2024-06-05 15:22:45.483053,47.43511450381679,-1.0916030534351144,-1.099236641221374,0.2154781494140625,2.9855694702148434,8.24802471923828,216.86004838812477,134.3420075809989
2024-06-05 15:22:45.489936,47.23664122137404,-0.9618320610687024,-1.0610687022900764,0.258573779296875,2.9496564453125,8.264784130859374,216.86004838812477,134.3420075809989
2024-06-05 15:22:45.496753,47.55725190839695,-1.2061068702290076,-1.4732824427480915,0.2849099975585937,3.009511486816406,8.355763793945313,216.86004838812477,134.3420075809989
2024-06-05 15:22:45.503572,47.54961832061068,-1.183206106870229,-1.5954198473282444,0.1963245361328124,3.0119056884765625,8.420407238769531,216.90543580043908,134.41613011917087
2024-06-05 15:22:45.510394,47.19083969465649,-1.083969465648855,-1.534351145038168,0.2059013427734375,3.047818713378906,8.394071020507813,216.90543580043908,134.41613011917087
2024-06-05 15:22:45.517565,44.954198473282446,-1.1145038167938932,-1.4961832061068705,0.2944868041992187,3.066972326660156,8.410830432128906,216.90543580043908,134.41613011917087
2024-06-05 15:22:45.524415,46.66412213740458,-1.015267175572519,-1.6488549618320612,0.2633621826171874,3.019088293457031,8.36294639892578,216.90543580043908,134.41613011917087
2024-06-05 15:22:45.531226,46.74809160305343,-1.015267175572519,-1.931297709923664,0.2322375610351562,2.8993782104492185,8.348581188964843,216.90543580043908,134.41613011917087
2024-06-05 15:22:45.538033,46.87786259541985,-0.931297709923664,-1.7786259541984732,0.2154781494140625,2.9185318237304685,8.398859423828124,216.90543580043908,134.41613011917087
2024-06-05 15:22:45.544871,47.05343511450382,-1.1755725190839694,-2.0381679389312977,0.2849099975585937,2.8610709838867185,8.394071020507813,216.90543580043908,134.41613011917087
2024-06-05 15:22:45.552054,47.0,-1.1450381679389312,-2.0610687022900764,0.0119710083007812,2.834734765625,8.451531860351562,216.90543580043908,134.41613011917087
2024-06-05 15:22:45.558890,46.954198473282446,-1.2442748091603053,-2.122137404580153,0.076614453125,2.935291235351562,8.353369592285155,216.90543580043908,134.41613011917087
2024-06-05 15:22:45.565664,44.94656488549618,-1.4045801526717556,-2.351145038167939,0.1173158813476562,2.887407202148437,8.398859423828124,216.90543580043908,134.41613011917087
2024-06-05 15:22:45.572466,46.65648854961832,-1.267175572519084,-2.33587786259542,0.1221042846679687,2.808398547363281,8.346186987304687,216.90543580043908,134.41613011917087
2024-06-05 15:22:45.579791,46.67175572519084,-1.366412213740458,-2.2519083969465647,0.1125274780273437,2.679111657714844,8.276755139160155,216.90543580043908,134.41613011917087
2024-06-05 15:22:45.587029,46.96946564885496,-1.2213740458015268,-2.213740458015267,0.1005564697265625,2.6695348510742187,8.51617530517578,216.90543580043908,134.41613011917087
2024-06-05 15:22:45.593905,46.99236641221374,-1.2900763358778626,-2.2290076335877864,0.0478840332031249,2.5570073730468748,8.453926062011718,216.90543580043908,134.41613011917087
2024-06-05 15:22:45.600782,47.20610687022901,-1.183206106870229,-2.137404580152672,0.0814028564453124,2.468421911621093,8.327033374023436,216.90543580043908,134.41613011917087
2024-06-05 15:22:45.607579,47.534351145038165,-1.251908396946565,-2.16793893129771,0.0047884033203125,2.645592834472656,8.427589843749999,216.90543580043908,134.41613011917087
2024-06-05 15:22:45.614811,47.29770992366412,-1.3893129770992367,-2.1603053435114505,0.105344873046875,2.5737667846679684,8.367734802246094,216.90543580043908,134.41613011917087
2024-06-05 15:22:45.621767,47.3587786259542,-1.3893129770992367,-2.2748091603053435,0.2825157958984375,2.592920397949219,8.532934716796875,216.90543580043908,134.41613011917087
2024-06-05 15:22:45.628651,47.396946564885496,-1.4274809160305344,-0.0229007633587786,0.0023942016601562,2.5378537597656248,8.571241943359375,216.90543580043908,134.41613011917087
2024-06-05 15:22:45.635507,47.44274809160305,-1.6564885496183206,-2.198473282442748,0.229843359375,2.480392919921875,8.470685473632813,216.90543580043908,134.41613011917087
2024-06-05 15:22:45.642543,47.908396946564885,-1.366412213740458,-1.984732824427481,0.239420166015625,2.521094348144531,8.403647827148436,216.90543580043908,134.41613011917087
2024-06-05 15:22:45.650289,48.06106870229008,-1.6106870229007633,-1.9694656488549616,0.17238251953125,2.4588451049804685,8.441955053710936,216.90543580043908,134.41613011917087
2024-06-05 15:22:45.657236,48.21374045801527,-1.6106870229007633,-1.786259541984733,0.1795651245117187,2.559401574707031,8.549694128417968,216.90543580043908,134.41613011917087
2024-06-05 15:22:45.664312,48.34351145038168,-1.5190839694656488,-1.8091603053435117,0.258573779296875,2.6336218261718747,8.475473876953124,216.90543580043908,134.41613011917087
2024-06-05 15:22:45.671202,48.32824427480916,-1.3740458015267176,-1.847328244274809,0.2849099975585937,2.6527754394531247,8.535328918457031,216.90543580043908,134.41613011917087
2024-06-05 15:22:45.678170,48.43511450381679,-1.5419847328244274,-1.6412213740458017,0.3327940307617187,2.6886884643554687,8.480262280273436,216.90543580043908,134.41613011917087
2024-06-05 15:22:45.685653,48.42748091603053,-1.5725190839694656,-1.6946564885496185,0.2154781494140625,2.73896669921875,8.432378247070313,216.90543580043908,134.41613011917087
2024-06-05 15:22:45.692548,48.58015267175573,-1.3969465648854962,-1.4274809160305344,0.3016694091796875,2.7198130859375,8.511386901855468,216.90543580043908,134.41613011917087
2024-06-05 15:22:45.699412,48.42748091603053,-1.4580152671755726,-1.3587786259541983,0.2657563842773437,2.808398547363281,8.389282617187499,216.90543580043908,134.41613011917087
2024-06-05 15:22:45.706257,48.534351145038165,-1.5572519083969465,-1.2061068702290076,0.2346317626953125,2.7844565307617186,8.343792785644531,216.90543580043908,134.41613011917087
2024-06-05 15:22:45.713791,48.770992366412216,-1.549618320610687,-1.099236641221374,0.2322375610351562,2.8802245971679685,8.267178332519531,216.90543580043908,134.41613011917087
2024-06-05 15:22:45.720764,48.70229007633588,-1.4809160305343512,-1.068702290076336,0.2322375610351562,2.8993782104492185,8.43956085205078,216.90543580043908,134.41613011917087
2024-06-05 15:22:45.727674,48.58778625954199,-1.4351145038167938,-1.045801526717557,0.181959326171875,2.923320227050781,8.37012900390625,216.90543580043908,134.41613011917087
2024-06-05 15:22:45.734569,48.55725190839695,-1.5725190839694656,-1.045801526717557,0.2418143676757812,2.9759926635742184,8.382100012207031,216.90543580043908,134.41613011917087
2024-06-05 15:22:45.741367,48.42748091603053,-1.5877862595419847,-1.0076335877862594,0.2466027709960937,3.019088293457031,8.441955053710936,216.90543580043908,134.41613011917087
2024-06-05 15:22:45.748663,48.68702290076336,-1.549618320610687,-1.1221374045801529,0.2609679809570312,3.0358477050781247,8.372523205566406,216.90543580043908,134.41613011917087
2024-06-05 15:22:45.755580,48.13740458015267,-1.5419847328244274,-1.3358778625954195,0.3902548706054687,2.987963671875,8.470685473632813,216.90543580043908,134.41613011917087
2024-06-05 15:22:45.762473,48.595419847328245,-1.4809160305343512,-1.3206106870229009,0.2082955444335937,3.047818713378906,8.346186987304687,216.90543580043908,134.41613011917087
2024-06-05 15:22:45.769439,48.29007633587786,-1.4122137404580153,-1.4198473282442747,0.2035071411132812,3.002328881835937,8.317456567382813,216.90543580043908,134.41613011917087
2024-06-05 15:22:45.776777,48.45038167938932,-1.3435114503816794,-1.5267175572519085,0.181959326171875,2.990357873535156,8.382100012207031,216.90543580043908,134.41613011917087
2024-06-05 15:22:45.783998,47.83206106870229,-1.4122137404580153,-1.83206106870229,0.2418143676757812,3.057395520019531,8.315062365722655,216.90543580043908,134.41613011917087
2024-06-05 15:22:45.790895,48.14503816793893,-1.3969465648854962,-1.83206106870229,0.2082955444335937,3.0693665283203124,8.346186987304687,216.90543580043908,134.41613011917087
2024-06-05 15:22:45.797720,47.76335877862596,-1.3893129770992367,-1.984732824427481,0.2035071411132812,3.138798376464844,8.415618835449218,216.90543580043908,134.41613011917087
2024-06-05 15:22:45.804578,47.87786259541985,-1.4427480916030535,-1.83206106870229,0.229843359375,3.1196447631835937,8.355763793945313,216.90543580043908,134.41613011917087
2024-06-05 15:22:45.811471,47.595419847328245,-1.366412213740458,-0.0381679389312977,0.2849099975585937,3.066972326660156,8.334215979003906,216.90543580043908,134.41613011917087
2024-06-05 15:22:45.818851,47.6030534351145,-1.6870229007633588,-1.870229007633588,0.2753331909179687,3.0502129150390624,8.420407238769531,216.90543580043908,134.41613011917087
2024-06-05 15:22:45.825761,47.48091603053435,-1.267175572519084,-1.931297709923664,0.2729389892578124,3.002328881835937,8.350975390624999,216.90543580043908,134.41613011917087
2024-06-05 15:22:45.832591,47.3587786259542,-1.3511450381679388,-1.9770992366412212,0.2513911743164062,2.9544448486328125,8.391676818847655,216.90543580043908,134.41613011917087
2024-06-05 15:22:45.839433,47.33587786259542,-1.3053435114503815,-1.8778625954198476,0.2896984008789062,3.0526071166992184,8.29351455078125,216.90543580043908,134.41613011917087
2024-06-05 15:22:45.846727,46.98473282442748,-1.4580152671755726,-1.786259541984733,0.4429273071289062,3.0119056884765625,8.40125362548828,216.90543580043908,134.41613011917087
2024-06-05 15:22:45.853771,47.29007633587786,-1.4274809160305344,-1.9694656488549616,0.3256114257812499,2.920926025390625,8.403647827148436,216.90543580043908,134.41613011917087
2024-06-05 15:22:45.860619,47.03053435114504,-1.2442748091603053,-1.7099236641221374,0.3375824340820312,2.9544448486328125,8.415618835449218,216.90543580043908,134.41613011917087
2024-06-05 15:22:45.867437,47.21374045801527,-1.068702290076336,-1.6488549618320612,0.3016694091796875,2.959233251953125,8.530540515136718,216.90543580043908,134.41613011917087
2024-06-05 15:22:45.874204,47.038167938931295,-1.3435114503816794,-1.862595419847328,0.3184288208007812,2.7581203125,8.398859423828124,216.90543580043908,134.41613011917087
2024-06-05 15:22:45.881609,46.94656488549618,-1.16793893129771,-1.870229007633588,0.2849099975585937,2.849099975585937,8.458714465332031,216.90543580043908,134.41613011917087
2024-06-05 15:22:45.888524,47.02290076335878,-1.2748091603053435,-1.732824427480916,0.28730419921875,2.935291235351562,8.36294639892578,216.90543580043908,134.41613011917087
2024-06-05 15:22:45.895393,47.05343511450382,-1.076335877862595,-1.8396946564885497,0.3280056274414062,2.85388837890625,8.377311608886718,216.90543580043908,134.41613011917087
2024-06-05 15:22:45.902283,47.03053435114504,-1.0305343511450382,-1.7404580152671756,0.2944868041992187,2.906560815429687,8.382100012207031,216.90543580043908,134.41613011917087
2024-06-05 15:22:45.909151,46.97709923664122,-1.0076335877862594,-1.6717557251908397,0.2992752075195312,2.8802245971679685,8.44674345703125,216.90543580043908,134.41613011917087
2024-06-05 15:22:45.916413,46.83969465648855,-1.183206106870229,-1.6564885496183206,0.2082955444335937,2.91134921875,8.418013037109375,216.90543580043908,134.41613011917087
2024-06-05 15:22:45.923346,47.038167938931295,-1.045801526717557,-1.7404580152671756,0.2561795776367187,2.9041666137695312,8.425195642089843,216.90543580043908,134.41613011917087
2024-06-05 15:22:45.930225,46.90076335877863,-1.083969465648855,-1.5725190839694656,0.2059013427734375,2.8131869506835936,8.379705810546875,216.90543580043908,134.41613011917087
2024-06-05 15:22:45.937076,47.06106870229008,-0.8625954198473282,-1.5954198473282444,0.2729389892578124,2.89219560546875,8.384494213867187,216.90543580043908,134.41613011917087
2024-06-05 15:22:45.943935,47.083969465648856,-0.9465648854961832,-1.4885496183206106,0.1651999145507812,2.868253588867187,8.451531860351562,216.90543580043908,134.41613011917087
2024-06-05 15:22:45.951204,47.0,-1.0076335877862594,-1.3740458015267176,0.0023942016601562,2.858676782226562,8.427589843749999,216.90543580043908,134.41613011917087
2024-06-05 15:22:45.958101,46.87022900763359,-1.213740458015267,-1.0534351145038168,0.2849099975585937,2.841917370605469,8.391676818847655,216.90543580043908,134.41613011917087
2024-06-05 15:22:45.964921,46.88549618320611,-1.1603053435114503,-1.1755725190839694,0.1675941162109374,2.923320227050781,8.312668164062499,216.90543580043908,134.41613011917087
2024-06-05 15:22:45.971765,46.81679389312977,-1.267175572519084,-1.1297709923664123,0.1556231079101562,2.863465185546875,8.360552197265624,216.90543580043908,134.41613011917087
2024-06-05 15:22:45.980131,47.25190839694657,-1.1374045801526718,-1.366412213740458,0.1340752929687499,2.8131869506835936,8.482656481933594,216.90543580043908,134.41613011917087
2024-06-05 15:22:45.987196,47.02290076335878,-1.3053435114503815,-1.236641221374046,0.0,2.887407202148437,8.283937744140625,216.90543580043908,134.41613011917087
2024-06-05 15:22:45.994265,46.81679389312977,-1.1526717557251909,-1.3358778625954195,0.1675941162109374,2.7198130859375,8.365340600585936,216.90543580043908,134.41613011917087
2024-06-05 15:22:46.001143,47.14503816793893,-1.1145038167938932,-1.6488549618320612,0.0263362182617187,2.8993782104492185,8.415618835449218,216.90543580043908,134.41613011917087
2024-06-05 15:22:46.007934,46.786259541984734,-1.236641221374046,-1.6488549618320612,0.21068974609375,2.6862942626953124,8.377311608886718,216.90543580043908,134.41613011917087
2024-06-05 15:22:46.015266,47.02290076335878,-1.3053435114503815,-1.6106870229007633,0.2178723510742187,2.7269956909179687,8.475473876953124,216.90543580043908,134.41613011917087
2024-06-05 15:22:46.022205,47.18320610687023,-1.251908396946565,-1.6946564885496185,0.2130839477539062,2.6431986328125,8.525752111816406,216.90543580043908,134.41613011917087
2024-06-05 15:22:46.029206,47.13740458015267,-1.3129770992366412,-1.7786259541984732,0.1963245361328124,2.6479870361328124,8.499415893554687,216.90543580043908,134.41613011917087
2024-06-05 15:22:46.036115,47.458015267175576,-1.2442748091603053,-1.8396946564885497,0.1843535278320312,2.693476867675781,8.427589843749999,216.90543580043908,134.41613011917087
2024-06-05 15:22:46.043132,47.22900763358778,-1.3206106870229009,-1.801526717557252,0.1915361328124999,2.7150246826171878,8.48505068359375,216.90543580043908,134.41613011917087
2024-06-05 15:22:46.050546,47.50381679389313,-1.3511450381679388,-1.7251908396946565,0.2274491577148437,2.7198130859375,8.444349255371094,216.90543580043908,134.41613011917087
2024-06-05 15:22:46.057522,47.65648854961832,-1.2748091603053435,-1.534351145038168,0.181959326171875,2.703053674316406,8.374917407226562,216.90543580043908,134.41613011917087
2024-06-05 15:22:46.064510,47.70229007633588,-1.183206106870229,-1.4198473282442747,0.1628057128906249,2.70065947265625,8.341398583984375,216.90543580043908,134.41613011917087
2024-06-05 15:22:46.071547,47.49618320610687,-1.1297709923664123,-1.2900763358778626,0.0430956298828125,2.703053674316406,8.300697155761718,216.90543580043908,134.41613011917087
2024-06-05 15:22:46.078494,48.03053435114504,-1.3282442748091603,-1.1221374045801529,0.1556231079101562,2.703053674316406,8.513781103515624,216.90543580043908,134.41613011917087
2024-06-05 15:22:46.085896,47.96946564885496,-1.3206106870229009,-1.0610687022900764,0.1867477294921875,2.7365724975585937,8.413224633789062,216.90543580043908,134.41613011917087
2024-06-05 15:22:46.092915,48.038167938931295,-1.3282442748091603,-1.3358778625954195,0.1915361328124999,2.710236279296875,8.365340600585936,216.90543580043908,134.41613011917087
2024-06-05 15:22:46.099832,47.93129770992366,-1.4274809160305344,-1.267175572519084,0.181959326171875,2.731784094238281,8.379705810546875,216.90543580043908,134.41613011917087
2024-06-05 15:22:46.106662,47.69465648854962,-1.267175572519084,-1.381679389312977,0.1604115112304687,2.741360900878906,8.2743609375,216.90543580043908,134.41613011917087
2024-06-05 15:22:46.113997,48.00763358778626,-1.1908396946564883,-1.5954198473282444,0.2825157958984375,2.676717456054688,8.394071020507813,216.90543580043908,134.41613011917087
2024-06-05 15:22:46.120937,48.02290076335878,-1.4809160305343512,-1.8931297709923665,0.2849099975585937,2.674323254394531,8.487444885253906,216.90543580043908,134.41613011917087
2024-06-05 15:22:46.128042,47.93129770992366,-1.4885496183206106,-2.0076335877862594,0.21068974609375,2.6599580444335937,8.51617530517578,216.90543580043908,134.41613011917087
2024-06-05 15:22:46.137597,48.3206106870229,-1.5572519083969465,-2.114503816793893,0.2035071411132812,2.578555187988281,8.317456567382813,216.90543580043908,134.41613011917087
2024-06-05 15:22:46.148239,48.46564885496184,-1.465648854961832,-2.312977099236641,0.1149216796875,2.829946362304687,8.355763793945313,216.90543580043908,134.41613011917087
2024-06-05 15:22:46.159265,48.267175572519086,-1.931297709923664,-2.099236641221374,-0.05746083984375,2.808398547363281,8.427589843749999,216.90543580043908,134.41613011917087
2024-06-05 15:22:46.170293,47.74809160305343,-1.5190839694656488,-2.0610687022900764,0.277727392578125,2.7198130859375,8.532934716796875,216.90543580043908,134.41613011917087
2024-06-05 15:22:46.180996,48.43511450381679,-1.4580152671755726,-1.8778625954198476,0.3256114257812499,2.7820623291015623,8.312668164062499,216.90543580043908,134.41613011917087
2024-06-05 15:22:46.192249,48.33587786259542,-1.5267175572519085,-1.5419847328244274,0.1891419311523437,2.7365724975585937,8.391676818847655,216.90543580043908,134.41613011917087
2024-06-05 15:22:46.202939,48.66412213740458,-1.3893129770992367,-1.045801526717557,0.2035071411132812,2.942473840332031,8.305485559082031,216.90543580043908,134.41613011917087
2024-06-05 15:22:46.213706,48.6030534351145,-1.5954198473282444,-0.8473282442748091,0.2322375610351562,3.071760729980469,8.28633194580078,216.90543580043908,134.41613011917087
2024-06-05 15:22:46.224791,47.96946564885496,-1.7938931297709924,-1.213740458015267,0.0311246215820312,3.143586779785156,8.305485559082031,216.90543580043908,134.41613011917087
2024-06-05 15:22:46.234488,47.46564885496184,-1.282442748091603,-0.8396946564885496,0.3687070556640625,3.066972326660156,8.449137658691406,216.90543580043908,134.41613011917087
2024-06-05 15:22:46.241664,48.0,-1.3587786259541983,-0.6946564885496184,0.3711012573242187,2.9089550170898435,8.43956085205078,216.90543580043908,134.41613011917087
2024-06-05 15:22:46.249120,48.18320610687023,-1.213740458015267,-0.6183206106870229,0.3112462158203125,2.877830395507812,8.374917407226562,216.90543580043908,134.41613011917087
2024-06-05 15:22:46.256207,48.17557251908397,-1.3206106870229009,-0.7557251908396947,0.2801215942382812,2.9185318237304685,8.317456567382813,216.90543580043908,134.41613011917087
2024-06-05 15:22:46.263272,48.52671755725191,-1.5114503816793894,-1.2595419847328244,0.411802685546875,2.966415856933593,8.40843623046875,216.90543580043908,134.41613011917087
2024-06-05 15:22:46.270246,48.21374045801527,-1.366412213740458,-1.4351145038167938,0.40222587890625,3.0166940917968748,8.279149340820313,216.90543580043908,134.41613011917087
2024-06-05 15:22:46.277182,47.786259541984734,-1.2061068702290076,-1.3969465648854962,0.3806780639648437,2.980781066894531,8.427589843749999,216.90543580043908,134.41613011917087
2024-06-05 15:22:46.284567,47.51908396946565,-1.297709923664122,-1.5572519083969465,0.4237736938476562,3.0166940917968748,8.475473876953124,216.90543580043908,134.41613011917087
2024-06-05 15:22:46.291606,47.2442748091603,-1.297709923664122,-1.8778625954198476,0.2178723510742187,3.038241906738281,8.468291271972657,216.90543580043908,134.41613011917087
